GyroX,GyroY,GyroZ,NoiseX,NoiseY,NoiseZ,ExpGravityX,ExpGravityY,ExpGravityZ,ExpOxX,ExpOxY,ExpOxZ,ExpOyX,ExpOyY,ExpOyZ,AccX,AccY,AccZ,ExpSpeedX,ExpSpeedY,ExpSpeedZ,dT
0.029177641693645662,0.02744563556571236,-0.017852986241774057,0.033051997,0.021985816,-0.0035719294,0.10218793,-0.021178024,0.9945397,0.99476516,0.0021755272,-0.102164775,0.0,-0.9997733,-0.021289472,0.8499415893554687,-0.1005564697265625,8.214505895996094,0.003786971,0.0,0.036600277,0.0044555664
0.035173047521107094,0.027045941843881597,-0.016120980113840753,0.033051997,0.021985816,-0.0035719294,0.10218793,-0.021178024,0.9945397,0.99476516,0.0021755272,-0.102164775,0.0,-0.9997734,-0.021289473,0.8762778076171874,-0.10773907470703124,8.204929089355469,0.019644903,0.0,0.18508425,0.018096924
0.03037672285913795,0.029843797896696934,-0.016254211354451008,0.033051997,0.021985816,-0.0035719294,0.10218793,-0.021178024,0.9945397,0.99476516,0.0021755272,-0.102164775,0.0,-0.9997734,-0.021289473,0.8259995727539062,-0.11731588134765625,8.228871105957031,0.03464337,0.0,0.33450377,0.018157959
0.032241960227681506,0.028378254249984136,-0.015854517632620246,0.033051997,0.021985816,-0.0035719294,0.10218793,-0.021178024,0.9945397,0.99476516,0.0021755272,-0.102164775,0.0,-0.9997734,-0.021289473,0.8092401611328125,-0.15322890625,8.224082702636718,0.049312823,0.0,0.48358536,0.018127441
0.03543951000232761,0.02997702913730719,-0.016520673835671518,0.033051997,0.021985816,-0.0035719294,0.10218793,-0.021178024,0.9945397,0.99476516,0.0021755272,-0.102164775,0.0,-0.9997734,-0.021289473,0.8690952026367187,-0.143652099609375,8.267178332519531,0.06506729,0.0,0.6334481,0.018127441
0.032241960227681506,0.031176110302799476,-0.01572128639200999,0.033051997,0.021985816,-0.0035719294,0.10218793,-0.021178024,0.9945397,0.99476516,0.0021755272,-0.102164775,0.0,-0.9997734,-0.021289473,0.86191259765625,-0.181959326171875,8.226476904296874,0.08069156,0.0,0.7825731,0.018127441
0.03064318534035846,0.02997702913730719,-0.015987748873230498,0.033051997,0.021985816,-0.0035719294,0.10218793,-0.021178024,0.9945397,0.99476516,0.0021755272,-0.102164775,0.0,-0.9997734,-0.021289473,0.8667010009765624,-0.19632453613281248,8.305485559082031,0.09640263,0.0,0.9331303,0.018127441
0.03357427263378405,0.033041347671343035,-0.017719755001163805,0.033051997,0.021985816,-0.0035719294,0.10218793,-0.021178024,0.9945397,0.99476516,0.0021755272,-0.102164775,0.0,-0.9997734,-0.021289473,0.852335791015625,-0.1771709228515625,8.300697155761718,0.111853294,0.0,1.0836008,0.018127441
0.031575804024630234,0.029843797896696934,-0.01212404289553313,0.033051997,0.021985816,-0.0035719294,0.10218793,-0.021178024,0.9945397,0.99476516,0.0021755272,-0.102164775,0.0,-0.9997734,-0.021289473,0.8092401611328125,-0.19632453613281248,8.233659509277343,0.1267944,0.0,1.2356199,0.018463135
0.03450689131805583,0.029310872934255914,-0.013189892820415163,0.033051997,0.021985816,-0.0035719294,0.10218793,-0.021178024,0.9945397,0.99476516,0.0021755272,-0.102164775,0.0,-0.9997734,-0.021289473,0.8690952026367187,-0.1388636962890625,8.219294299316406,0.14252235,0.0,1.3843639,0.018096924
0.029177641693645662,0.03064318534035846,-0.013856049023466432,0.033051997,0.021985816,-0.0035719294,0.10218793,-0.021178024,0.9945397,0.99476516,0.0021755272,-0.102164775,0.0,-0.9997734,-0.021289473,0.842758984375,-0.22026655273437498,8.257601525878906,0.15782513,-0.003999591,1.5343051,0.018157959
0.03384073511500456,0.03037672285913795,-0.015188361429568975,0.033051997,0.021985816,-0.0035719294,0.10218793,-0.021178024,0.9945397,0.99476516,0.0021755272,-0.102164775,0.0,-0.9997734,-0.021289473,0.8451531860351562,-0.181959326171875,8.204929089355469,0.17317139,-0.003999591,1.6832899,0.018157959
0.036505359927209644,0.03317457891195329,-0.01438897398590745,0.033051997,0.021985816,-0.0035719294,0.10218793,-0.021178024,0.9945397,0.99476516,0.0021755272,-0.102164775,0.0,-0.9997734,-0.021289473,0.8595183959960937,-0.13168109130859373,8.288726147460936,0.18867357,-0.003999591,1.8327844,0.018035889
0.033307810152563545,0.02971056665608668,-0.01505513018895872,0.033051997,0.021985816,-0.0035719294,0.10218793,-0.021178024,0.9945397,0.99476516,0.0021755272,-0.102164775,0.0,-0.9997734,-0.021289473,0.8547299926757812,-0.15322890625,8.257601525878906,0.20401113,-0.003999591,1.9809616,0.017944336
0.0302434916185277,0.029843797896696934,-0.01572128639200999,0.033051997,0.021985816,-0.0035719294,0.10218793,-0.021178024,0.9945397,0.99476516,0.0021755272,-0.102164775,0.0,-0.9997734,-0.021289473,0.7661445312499999,-0.16759411621093748,8.197746484375,0.21775909,-0.003999591,2.1280646,0.017944336
0.0302434916185277,0.028378254249984136,-0.017453292519943295,0.033051997,0.021985816,-0.0035719294,0.10218793,-0.021178024,0.9945397,0.99476516,0.0021755272,-0.102164775,0.0,-0.9997734,-0.021289473,0.9265560424804687,-0.20829554443359374,8.271966735839843,0.23438552,-0.007737316,2.2764995,0.017944336
0.031975497746460996,0.026379785640830326,-0.014655436467127957,0.033051997,0.021985816,-0.0035719294,0.10218793,-0.021178024,0.9945397,0.99476516,0.0021755272,-0.102164775,0.0,-0.9997734,-0.021289473,0.8475473876953125,-0.20350714111328125,8.276755139160155,0.2495942,-0.011389117,2.4250205,0.017944336
0.03530627876171736,0.027712098046932865,-0.017586523760553547,0.033051997,0.021985816,-0.0035719294,0.10218793,-0.021178024,0.9945397,0.99476516,0.0021755272,-0.102164775,0.0,-0.9997734,-0.021289473,0.8451531860351562,-0.181959326171875,8.264784130859374,0.26473412,-0.011389117,2.5730743,0.017913818
0.03144257278401998,0.02971056665608668,-0.013989280264076687,0.033051997,0.021985816,-0.0035719294,0.10218793,-0.021178024,0.9945397,0.99476516,0.0021755272,-0.102164775,0.0,-0.9997734,-0.021289473,0.8858546142578124,-0.15083470458984374,8.32463917236328,0.2806302,-0.011389117,2.7224545,0.017944336
0.03530627876171736,0.028111791768763626,-0.01705359879811253,0.033051997,0.021985816,-0.0035719294,0.10218793,-0.021178024,0.9945397,0.99476516,0.0021755272,-0.102164775,0.0,-0.9997734,-0.021289473,0.86191259765625,-0.16041151123046873,8.257601525878906,0.29604405,-0.011389117,2.8701277,0.0178833
0.03464012255866608,0.027978560528153375,-0.01532159267017923,0.033051997,0.021985816,-0.0035719294,0.10218793,-0.021178024,0.9945397,0.99476516,0.0021755272,-0.102164775,0.0,-0.9997734,-0.021289473,0.8307879760742187,-0.19871873779296872,8.305485559082031,0.31092665,-0.011389117,3.0189106,0.017913818
0.03424042883683532,0.029177641693645662,-0.01692036755750228,0.033051997,0.021985816,-0.0035719294,0.10218793,-0.021178024,0.9945397,0.99476516,0.0021755272,-0.102164775,0.0,-0.9997734,-0.021289473,0.8451531860351562,-0.2705447875976562,8.219294299316406,0.32606655,-0.016235607,3.1661496,0.017913818
0.031975497746460996,0.026646248122050836,-0.015188361429568975,0.033051997,0.021985816,-0.0035719294,0.10218793,-0.021178024,0.9945397,0.99476516,0.0021755272,-0.102164775,0.0,-0.9997734,-0.021289473,0.8307879760742187,-0.16759411621093748,8.310273962402343,0.34099984,-0.016235607,3.3155255,0.017974854
0.03130934154340973,0.029444104174866172,-0.016787136316892024,0.033051997,0.021985816,-0.0035719294,0.10218793,-0.021178024,0.9945397,0.99476516,0.0021755272,-0.102164775,0.0,-0.9997734,-0.021289473,0.8547299926757812,-0.16998831787109375,8.358157995605469,0.35654607,-0.016235607,3.4675477,0.018188477
0.03037672285913795,0.026646248122050836,-0.015987748873230498,0.033051997,0.021985816,-0.0035719294,0.10218793,-0.021178024,0.9945397,0.99476516,0.0021755272,-0.102164775,0.0,-0.9997734,-0.021289473,0.7541735229492187,-0.19632453613281248,8.283937744140625,0.37012523,-0.016235607,3.616703,0.018005371
0.032774885190122525,0.029444104174866172,-0.014522205226517705,0.033051997,0.021985816,-0.0035719294,0.10218793,-0.021178024,0.9945397,0.99476516,0.0021755272,-0.102164775,0.0,-0.9997734,-0.021289473,0.8906430175781249,-0.1580173095703125,8.295908752441406,0.38610724,-0.016235607,3.7655675,0.017944336
0.0302434916185277,0.02904441045303541,-0.015454823910789483,0.033051997,0.021985816,-0.0035719294,0.10218793,-0.021178024,0.9945397,0.99476516,0.0021755272,-0.102164775,0.0,-0.9997734,-0.021289473,0.7876923461914062,-0.11252747802734374,8.315062365722655,0.4002178,-0.016235607,3.9145222,0.017913818
0.029843797896696934,0.02851148549059439,-0.013856049023466432,0.033051997,0.021985816,-0.0035719294,0.10218793,-0.021178024,0.9945397,0.99476516,0.0021755272,-0.102164775,0.0,-0.9997734,-0.021289473,0.8475473876953125,-0.181959326171875,8.281543542480469,0.41540062,-0.016235607,4.062876,0.017913818
0.03011026037791744,0.02851148549059439,-0.017986217482384312,0.033051997,0.021985816,-0.0035719294,0.10218793,-0.021178024,0.9945397,0.99476516,0.0021755272,-0.102164775,0.0,-0.9997734,-0.021289473,0.8978256225585937,-0.21308394775390624,8.262389929199218,0.43151152,-0.020059256,4.211139,0.017944336
0.03144257278401998,0.02997702913730719,-0.015588055151399738,0.033051997,0.021985816,-0.0035719294,0.10218793,-0.021178024,0.9945397,0.99476516,0.0021755272,-0.102164775,0.0,-0.9997734,-0.021289473,0.82360537109375,-0.15322890625,8.17859287109375,0.44626543,-0.020059256,4.357649,0.017913818
0.032108728987071254,0.03264165394951227,-0.014788667707738212,0.033051997,0.021985816,-0.0035719294,0.10218793,-0.021178024,0.9945397,0.99476516,0.0021755272,-0.102164775,0.0,-0.9997734,-0.021289473,0.8283937744140625,-0.17238251953125,8.219294299316406,0.4611304,-0.020059256,4.5051384,0.017944336
0.031575804024630234,0.029310872934255914,-0.016254211354451008,0.033051997,0.021985816,-0.0035719294,0.10218793,-0.021178024,0.9945397,0.99476516,0.0021755272,-0.102164775,0.0,-0.9997734,-0.021289473,0.7589619262695312,-0.2154781494140625,8.259995727539062,0.47472632,-0.023919292,4.6531067,0.017913818
0.03317457891195329,0.026379785640830326,-0.014255742745297196,0.033051997,0.021985816,-0.0035719294,0.10218793,-0.021178024,0.9945397,0.99476516,0.0021755272,-0.102164775,0.0,-0.9997734,-0.021289473,0.8667010009765624,-0.16998831787109375,8.190563879394531,0.49025226,-0.023919292,4.799831,0.017913818
0.03530627876171736,0.032375191468291764,-0.01572128639200999,0.033051997,0.021985816,-0.0035719294,0.10218793,-0.021178024,0.9945397,0.99476516,0.0021755272,-0.102164775,0.0,-0.9997734,-0.021289473,0.8403647827148437,-0.16998831787109375,8.288726147460936,0.50528073,-0.023919292,4.9480605,0.0178833
0.032108728987071254,0.0305099540997482,-0.014122511504686942,0.033051997,0.021985816,-0.0035719294,0.10218793,-0.021178024,0.9945397,0.99476516,0.0021755272,-0.102164775,0.0,-0.9997734,-0.021289473,0.8499415893554687,-0.20350714111328125,8.276755139160155,0.52050644,-0.027564881,5.0963287,0.017913818
0.03370750387439431,0.02904441045303541,-0.01692036755750228,0.033051997,0.021985816,-0.0035719294,0.10218793,-0.021178024,0.9945397,0.99476516,0.0021755272,-0.102164775,0.0,-0.9997734,-0.021289473,0.8643067993164062,-0.14125789794921875,8.283937744140625,0.5359631,-0.027564881,5.244473,0.0178833
0.035705972483548114,0.02851148549059439,-0.01505513018895872,0.033051997,0.021985816,-0.0035719294,0.10218793,-0.021178024,0.9945397,0.99476516,0.0021755272,-0.102164775,0.0,-0.9997734,-0.021289473,0.8690952026367187,-0.201112939453125,8.341398583984375,0.5515319,-0.031167582,5.3938994,0.017913818
0.032508422708902016,0.029310872934255914,-0.01572128639200999,0.033051997,0.021985816,-0.0035719294,0.10218793,-0.021178024,0.9945397,0.99476516,0.0021755272,-0.102164775,0.0,-0.9997734,-0.021289473,0.8547299926757812,-0.22744915771484372,8.228871105957031,0.5668434,-0.035242066,5.54131,0.017913818
0.03410719759622506,0.03011026037791744,-0.013323124061025418,0.033051997,0.021985816,-0.0035719294,0.10218793,-0.021178024,0.9945397,0.99476516,0.0021755272,-0.102164775,0.0,-0.9997734,-0.021289473,0.7924807495117187,-0.14604630126953125,8.334215979003906,0.5810639,-0.035242066,5.6908617,0.017944336
0.03530627876171736,0.02851148549059439,-0.01572128639200999,0.033051997,0.021985816,-0.0035719294,0.10218793,-0.021178024,0.9945397,0.99476516,0.0021755272,-0.102164775,0.0,-0.9997734,-0.021289473,0.86191259765625,-0.17238251953125,8.305485559082031,0.5967145,-0.035242066,5.8416724,0.018157959
0.03424042883683532,0.030909647821578966,-0.01692036755750228,0.033051997,0.021985816,-0.0035719294,0.10218793,-0.021178024,0.9945397,0.99476516,0.0021755272,-0.102164775,0.0,-0.9997734,-0.021289473,0.8307879760742187,-0.1484405029296875,8.298302954101562,0.6116478,-0.035242066,5.9908333,0.017974854
0.0302434916185277,0.029177641693645662,-0.016120980113840753,0.033051997,0.021985816,-0.0035719294,0.10218793,-0.021178024,0.9945397,0.99476516,0.0021755272,-0.102164775,0.0,-0.9997734,-0.021289473,0.8547299926757812,-0.16998831787109375,8.212111694335936,0.62695926,-0.035242066,6.1379437,0.017913818
0.029843797896696934,0.02744563556571236,-0.017986217482384312,0.033051997,0.021985816,-0.0035719294,0.10218793,-0.021178024,0.9945397,0.99476516,0.0021755272,-0.102164775,0.0,-0.9997734,-0.021289473,0.8762778076171874,-0.17477672119140625,8.25520732421875,0.64265674,-0.035242066,6.285826,0.017913818
0.031842266505850744,0.032241960227681506,-0.017719755001163805,0.033051997,0.021985816,-0.0035719294,0.10218793,-0.021178024,0.9945397,0.99476516,0.0021755272,-0.102164775,0.0,-0.9997734,-0.021289473,0.8738836059570312,-0.201112939453125,8.192958081054687,0.65828466,-0.03883863,6.4323435,0.0178833
0.02851148549059439,0.029310872934255914,-0.012923430339194655,0.033051997,0.021985816,-0.0035719294,0.10218793,-0.021178024,0.9945397,0.99476516,0.0021755272,-0.102164775,0.0,-0.9997734,-0.021289473,0.7996633544921875,-0.19632453613281248,8.276755139160155,0.6726097,-0.03883863,6.5806117,0.017913818
0.036238897445989134,0.02971056665608668,-0.01572128639200999,0.033051997,0.021985816,-0.0035719294,0.10218793,-0.021178024,0.9945397,0.99476516,0.0021755272,-0.102164775,0.0,-0.9997734,-0.021289473,0.8786720092773437,-0.16041151123046873,8.250418920898436,0.6883501,-0.03883863,6.7284083,0.017913818
0.033041347671343035,0.02904441045303541,-0.014255742745297196,0.033051997,0.021985816,-0.0035719294,0.10218793,-0.021178024,0.9945397,0.99476516,0.0021755272,-0.102164775,0.0,-0.9997734,-0.021289473,0.8212111694335937,-0.17956512451171874,8.245630517578125,0.70303607,-0.03883863,6.8758674,0.0178833
0.030909647821578966,0.02851148549059439,-0.017719755001163805,0.033051997,0.021985816,-0.0035719294,0.10218793,-0.021178024,0.9945397,0.99476516,0.0021755272,-0.102164775,0.0,-0.9997734,-0.021289473,0.8571241943359375,-0.19393033447265623,8.259995727539062,0.7183643,-0.03883863,7.0235834,0.0178833
0.03397396635561481,0.02971056665608668,-0.017986217482384312,0.033051997,0.021985816,-0.0035719294,0.10218793,-0.021178024,0.9945397,0.99476516,0.0021755272,-0.102164775,0.0,-0.9997734,-0.021289473,0.8451531860351562,-0.17477672119140625,8.269572534179687,0.73353,-0.03883863,7.1719756,0.017944336
0.03357427263378405,0.02744563556571236,-0.012656967857974145,0.033051997,0.021985816,-0.0035719294,0.10218793,-0.021178024,0.9945397,0.99476516,0.0021755272,-0.102164775,0.0,-0.9997734,-0.021289473,0.8547299926757812,-0.181959326171875,8.310273962402343,0.74884146,-0.03883863,7.320844,0.017913818
0.032774885190122525,0.029843797896696934,-0.016520673835671518,0.033051997,0.021985816,-0.0035719294,0.10218793,-0.021178024,0.9945397,0.99476516,0.0021755272,-0.102164775,0.0,-0.9997734,-0.021289473,0.8403647827148437,-0.11013327636718749,8.240842114257813,0.76389563,-0.03883863,7.468469,0.017913818
0.03077641658096871,0.03011026037791744,-0.013989280264076687,0.033051997,0.021985816,-0.0035719294,0.10218793,-0.021178024,0.9945397,0.99476516,0.0021755272,-0.102164775,0.0,-0.9997734,-0.021289473,0.8714894042968749,-0.22744915771484372,8.197746484375,0.7795339,-0.042920053,7.6155725,0.017944336
0.031842266505850744,0.03077641658096871,-0.017186830038722786,0.033051997,0.021985816,-0.0035719294,0.10218793,-0.021178024,0.9945397,0.99476516,0.0021755272,-0.102164775,0.0,-0.9997734,-0.021289473,0.7924807495117187,-0.12689268798828124,8.231265307617187,0.79375446,-0.042920053,7.763277,0.017944336
0.0305099540997482,0.029577335415476424,-0.020251148572758632,0.033051997,0.021985816,-0.0035719294,0.10218793,-0.021178024,0.9945397,0.99476516,0.0021755272,-0.102164775,0.0,-0.9997734,-0.021289473,0.86191259765625,-0.18435352783203124,8.250418920898436,0.8092472,-0.042920053,7.911577,0.017974854
0.02971056665608668,0.028911179212425153,-0.016254211354451008,0.033051997,0.021985816,-0.0035719294,0.10218793,-0.021178024,0.9945397,0.99476516,0.0021755272,-0.102164775,0.0,-0.9997734,-0.021289473,0.86191259765625,-0.17956512451171874,8.29351455078125,0.82468736,-0.042920053,8.060145,0.017913818
0.03397396635561481,0.03064318534035846,-0.014788667707738212,0.033051997,0.021985816,-0.0035719294,0.10218793,-0.021178024,0.9945397,0.99476516,0.0021755272,-0.102164775,0.0,-0.9997734,-0.021289473,0.8212111694335937,-0.16280571289062498,8.307879760742187,0.83967406,-0.042920053,8.2117605,0.018249512
0.03823736605514295,0.029843797896696934,-0.01732006127933304,0.033051997,0.021985816,-0.0035719294,0.10218793,-0.021178024,0.9945397,0.99476516,0.0021755272,-0.102164775,0.0,-0.9997734,-0.021289473,0.842758984375,-0.16998831787109375,8.307879760742187,0.8547454,-0.042920053,8.3603325,0.0178833
0.032508422708902016,0.029577335415476424,-0.013989280264076687,0.033051997,0.021985816,-0.0035719294,0.10218793,-0.021178024,0.9945397,0.99476516,0.0021755272,-0.102164775,0.0,-0.9997734,-0.021289473,0.8499415893554687,-0.19632453613281248,8.188169677734374,0.869997,-0.042920053,8.507264,0.017944336
0.02971056665608668,0.029310872934255914,-0.016387442595061263,0.033051997,0.021985816,-0.0035719294,0.10218793,-0.021178024,0.9945397,0.99476516,0.0021755272,-0.102164775,0.0,-0.9997734,-0.021289473,0.7996633544921875,-0.201112939453125,8.276755139160155,0.88429767,-0.046516616,8.65528,0.0178833
0.03384073511500456,0.028644716731204646,-0.017186830038722786,0.033051997,0.021985816,-0.0035719294,0.10218793,-0.021178024,0.9945397,0.99476516,0.0021755272,-0.102164775,0.0,-0.9997734,-0.021289473,0.9002198242187499,-0.239420166015625,8.257601525878906,0.90042406,-0.050805546,8.8032055,0.017913818
0.03264165394951227,0.031575804024630234,-0.016120980113840753,0.033051997,0.021985816,-0.0035719294,0.10218793,-0.021178024,0.9945397,0.99476516,0.0021755272,-0.102164775,0.0,-0.9997734,-0.021289473,0.8020575561523438,-0.24181436767578124,8.307879760742187,0.9147675,-0.055129986,8.951777,0.0178833
0.02851148549059439,0.02971056665608668,-0.014122511504686942,0.033051997,0.021985816,-0.0035719294,0.10218793,-0.021178024,0.9945397,0.99476516,0.0021755272,-0.102164775,0.0,-0.9997734,-0.021289473,0.8212111694335937,-0.143652099609375,8.312668164062499,0.9295036,-0.055129986,9.100943,0.017944336
0.03357427263378405,0.028378254249984136,-0.014255742745297196,0.033051997,0.021985816,-0.0035719294,0.10218793,-0.021178024,0.9945397,0.99476516,0.0021755272,-0.102164775,0.0,-0.9997734,-0.021289473,0.7972691528320313,-0.11731588134765625,8.291120349121094,0.9437614,-0.055129986,9.249215,0.0178833
0.03397396635561481,0.02904441045303541,-0.012656967857974145,0.033051997,0.021985816,-0.0035719294,0.10218793,-0.021178024,0.9945397,0.99476516,0.0021755272,-0.102164775,0.0,-0.9997734,-0.021289473,0.8547299926757812,-0.1580173095703125,8.259995727539062,0.9590729,-0.055129986,9.397183,0.017913818
0.03077641658096871,0.028245023009373885,-0.014522205226517705,0.033051997,0.021985816,-0.0035719294,0.10218793,-0.021178024,0.9945397,0.99476516,0.0021755272,-0.102164775,0.0,-0.9997734,-0.021289473,0.814028564453125,-0.18435352783203124,8.329427575683594,0.9736304,-0.055129986,9.546141,0.0178833
0.03064318534035846,0.031176110302799476,-0.01212404289553313,0.033051997,0.021985816,-0.0035719294,0.10218793,-0.021178024,0.9945397,0.99476516,0.0021755272,-0.102164775,0.0,-0.9997734,-0.021289473,0.8667010009765624,-0.1388636962890625,8.276755139160155,0.98918283,-0.055129986,9.694661,0.017944336
0.02997702913730719,0.03077641658096871,-0.014255742745297196,0.033051997,0.021985816,-0.0035719294,0.10218793,-0.021178024,0.9945397,0.99476516,0.0021755272,-0.102164775,0.0,-0.9997734,-0.021289473,0.842758984375,-0.2154781494140625,8.267178332519531,1.0042799,-0.058990024,9.842758,0.017913818
0.031176110302799476,0.0287779479718149,-0.018785604926045835,0.033051997,0.021985816,-0.0035719294,0.10218793,-0.021178024,0.9945397,0.99476516,0.0021755272,-0.102164775,0.0,-0.9997734,-0.021289473,0.8259995727539062,-0.19153613281249998,8.262389929199218,1.0191019,-0.058990024,9.991021,0.017944336
0.03077641658096871,0.033041347671343035,-0.016653905076281773,0.033051997,0.021985816,-0.0035719294,0.10218793,-0.021178024,0.9945397,0.99476516,0.0021755272,-0.102164775,0.0,-0.9997734,-0.021289473,0.8810662109374999,-0.18914193115234373,8.192958081054687,1.0348852,-0.058990024,10.137789,0.017913818
0.031842266505850744,0.0287779479718149,-0.015454823910789483,0.033051997,0.021985816,-0.0035719294,0.10218793,-0.021178024,0.9945397,0.99476516,0.0021755272,-0.102164775,0.0,-0.9997734,-0.021289473,0.8858546142578124,-0.22026655273437498,8.207323291015625,1.0508353,-0.062956005,10.285564,0.018005371
0.03144257278401998,0.032508422708902016,-0.015987748873230498,0.033051997,0.021985816,-0.0035719294,0.10218793,-0.021178024,0.9945397,0.99476516,0.0021755272,-0.102164775,0.0,-0.9997734,-0.021289473,0.8259995727539062,-0.19393033447265623,8.29351455078125,1.0656573,-0.062956005,10.434386,0.017944336
0.032508422708902016,0.03357427263378405,-0.012656967857974145,0.033051997,0.021985816,-0.0035719294,0.10218793,-0.021178024,0.9945397,0.99476516,0.0021755272,-0.102164775,0.0,-0.9997734,-0.021289473,0.9265560424804687,-0.181959326171875,8.32463917236328,1.0825665,-0.062956005,10.586307,0.018249512
0.032108728987071254,0.026646248122050836,-0.017586523760553547,0.033051997,0.021985816,-0.0035719294,0.10218793,-0.021178024,0.9945397,0.99476516,0.0021755272,-0.102164775,0.0,-0.9997734,-0.021289473,0.8499415893554687,-0.1580173095703125,8.33182177734375,1.0977663,-0.062956005,10.735307,0.0178833
0.032241960227681506,0.031176110302799476,-0.014522205226517705,0.033051997,0.021985816,-0.0035719294,0.10218793,-0.021178024,0.9945397,0.99476516,0.0021755272,-0.102164775,0.0,-0.9997734,-0.021289473,0.8738836059570312,-0.17477672119140625,8.283937744140625,1.1134475,-0.062956005,10.883957,0.017944336
0.02904441045303541,0.03170903526524049,-0.016787136316892024,0.033051997,0.021985816,-0.0035719294,0.10218793,-0.021178024,0.9945397,0.99476516,0.0021755272,-0.102164775,0.0,-0.9997734,-0.021289473,0.8116343627929687,-0.14125789794921875,8.305485559082031,1.1280613,-0.062956005,11.033501,0.018005371
0.03264165394951227,0.027978560528153375,-0.01732006127933304,0.033051997,0.021985816,-0.0035719294,0.10218793,-0.021178024,0.9945397,0.99476516,0.0021755272,-0.102164775,0.0,-0.9997734,-0.021289473,0.8188169677734375,-0.17477672119140625,8.269572534179687,1.1427294,-0.062956005,11.181641,0.017913818
0.033307810152563545,0.03037672285913795,-0.01345635530163567,0.033051997,0.021985816,-0.0035719294,0.10218793,-0.021178024,0.9945397,0.99476516,0.0021755272,-0.102164775,0.0,-0.9997734,-0.021289473,0.8906430175781249,-0.17238251953125,8.279149340820313,1.1586843,-0.062956005,11.329952,0.017913818
0.036238897445989134,0.03357427263378405,-0.017453292519943295,0.033051997,0.021985816,-0.0035719294,0.10218793,-0.021178024,0.9945397,0.99476516,0.0021755272,-0.102164775,0.0,-0.9997734,-0.021289473,0.8188169677734375,-0.15322890625,8.264784130859374,1.1733774,-0.062956005,11.478258,0.017944336
0.03144257278401998,0.028644716731204646,-0.01505513018895872,0.033051997,0.021985816,-0.0035719294,0.10218793,-0.021178024,0.9945397,0.99476516,0.0021755272,-0.102164775,0.0,-0.9997734,-0.021289473,0.8044517578125,-0.18914193115234373,8.279149340820313,1.1877637,-0.062956005,11.626317,0.0178833
0.03863705977697371,0.031975497746460996,-0.017719755001163805,0.033051997,0.021985816,-0.0035719294,0.10218793,-0.021178024,0.9945397,0.99476516,0.0021755272,-0.102164775,0.0,-0.9997734,-0.021289473,0.8164227661132812,-0.13646949462890623,8.252813122558594,1.202364,-0.062956005,11.773905,0.0178833
0.032774885190122525,0.031842266505850744,-0.015454823910789483,0.033051997,0.021985816,-0.0035719294,0.10218793,-0.021178024,0.9945397,0.99476516,0.0021755272,-0.102164775,0.0,-0.9997734,-0.021289473,0.86191259765625,-0.16041151123046873,8.276755139160155,1.2178568,-0.062956005,11.922678,0.017974854
0.03317457891195329,0.028378254249984136,-0.018252679963604822,0.033051997,0.021985816,-0.0035719294,0.10218793,-0.021178024,0.9945397,0.99476516,0.0021755272,-0.102164775,0.0,-0.9997734,-0.021289473,0.8643067993164062,-0.20829554443359374,8.252813122558594,1.2332871,-0.06667466,12.070014,0.017852783
0.03530627876171736,0.02691271060327134,-0.018652373685435583,0.033051997,0.021985816,-0.0035719294,0.10218793,-0.021178024,0.9945397,0.99476516,0.0021755272,-0.102164775,0.0,-0.9997734,-0.021289473,0.8738836059570312,-0.20350714111328125,8.202534887695313,1.2489151,-0.070314035,12.216702,0.0178833
0.031042879062189218,0.031975497746460996,-0.014255742745297196,0.033051997,0.021985816,-0.0035719294,0.10218793,-0.021178024,0.9945397,0.99476516,0.0021755272,-0.102164775,0.0,-0.9997734,-0.021289473,0.814028564453125,-0.181959326171875,8.267178332519531,1.2634975,-0.070314035,12.3647995,0.017913818
0.032508422708902016,0.03011026037791744,-0.015454823910789483,0.033051997,0.021985816,-0.0035719294,0.10218793,-0.021178024,0.9945397,0.99476516,0.0021755272,-0.102164775,0.0,-0.9997734,-0.021289473,0.852335791015625,-0.1580173095703125,8.245630517578125,1.2788181,-0.070314035,12.513014,0.017974854
0.033307810152563545,0.03011026037791744,-0.017186830038722786,0.033051997,0.021985816,-0.0035719294,0.10218793,-0.021178024,0.9945397,0.99476516,0.0021755272,-0.102164775,0.0,-0.9997734,-0.021289473,0.8068459594726562,-0.16998831787109375,8.25520732421875,1.2933457,-0.070314035,12.661652,0.018005371
0.032375191468291764,0.0305099540997482,-0.016520673835671518,0.033051997,0.021985816,-0.0035719294,0.10218793,-0.021178024,0.9945397,0.99476516,0.0021755272,-0.102164775,0.0,-0.9997734,-0.021289473,0.8738836059570312,-0.16280571289062498,8.212111694335936,1.3092669,-0.070314035,12.811268,0.018218994
0.03450689131805583,0.031042879062189218,-0.016787136316892024,0.033051997,0.021985816,-0.0035719294,0.10218793,-0.021178024,0.9945397,0.99476516,0.0021755272,-0.102164775,0.0,-0.9997734,-0.021289473,0.8643067993164062,-0.15083470458984374,8.288726147460936,1.3248554,-0.070314035,12.960762,0.018035889
0.032375191468291764,0.031042879062189218,-0.0127901990985844,0.033051997,0.021985816,-0.0035719294,0.10218793,-0.021178024,0.9945397,0.99476516,0.0021755272,-0.102164775,0.0,-0.9997734,-0.021289473,0.8690952026367187,-0.181959326171875,8.269572534179687,1.3405304,-0.070314035,13.109911,0.018035889
0.032774885190122525,0.03064318534035846,-0.016387442595061263,0.033051997,0.021985816,-0.0035719294,0.10218793,-0.021178024,0.9945397,0.99476516,0.0021755272,-0.102164775,0.0,-0.9997734,-0.021289473,0.8379705810546875,-0.15322890625,8.279149340820313,1.3555672,-0.070314035,13.258474,0.017944336
0.031842266505850744,0.03144257278401998,-0.013989280264076687,0.033051997,0.021985816,-0.0035719294,0.10218793,-0.021178024,0.9945397,0.99476516,0.0021755272,-0.102164775,0.0,-0.9997734,-0.021289473,0.86191259765625,-0.15083470458984374,8.33182177734375,1.3711126,-0.070314035,13.408746,0.018035889
0.03450689131805583,0.029444104174866172,-0.014655436467127957,0.033051997,0.021985816,-0.0035719294,0.10218793,-0.021178024,0.9945397,0.99476516,0.0021755272,-0.102164775,0.0,-0.9997734,-0.021289473,0.833182177734375,-0.1771709228515625,8.310273962402343,1.386089,-0.070314035,13.558122,0.017974854
0.032508422708902016,0.03064318534035846,-0.017986217482384312,0.033051997,0.021985816,-0.0035719294,0.10218793,-0.021178024,0.9945397,0.99476516,0.0021755272,-0.102164775,0.0,-0.9997734,-0.021289473,0.8547299926757812,-0.19153613281249998,8.336610180664062,1.4014004,-0.070314035,13.707462,0.017913818
0.03357427263378405,0.02971056665608668,-0.016387442595061263,0.033051997,0.021985816,-0.0035719294,0.10218793,-0.021178024,0.9945397,0.99476516,0.0021755272,-0.102164775,0.0,-0.9997734,-0.021289473,0.8882488159179687,-0.2059013427734375,8.233659509277343,1.4172853,-0.07399623,13.854708,0.0178833
0.032375191468291764,0.03077641658096871,-0.013056661579804908,0.033051997,0.021985816,-0.0035719294,0.10218793,-0.021178024,0.9945397,0.99476516,0.0021755272,-0.102164775,0.0,-0.9997734,-0.021289473,0.9074024291992187,-0.1867477294921875,8.276755139160155,1.433568,-0.07399623,14.003228,0.017944336
0.03503981628049684,0.031975497746460996,-0.013589586542245924,0.033051997,0.021985816,-0.0035719294,0.10218793,-0.021178024,0.9945397,0.99476516,0.0021755272,-0.102164775,0.0,-0.9997734,-0.021289473,0.8355763793945312,-0.18435352783203124,8.250418920898436,1.4485109,-0.07399623,14.150773,0.0178833
0.029310872934255914,0.028378254249984136,-0.01345635530163567,0.033051997,0.021985816,-0.0035719294,0.10218793,-0.021178024,0.9945397,0.99476516,0.0021755272,-0.102164775,0.0,-0.9997734,-0.021289473,0.82360537109375,-0.2059013427734375,8.307879760742187,1.4632397,-0.07767843,14.299345,0.0178833
0.03317457891195329,0.02997702913730719,-0.01732006127933304,0.033051997,0.021985816,-0.0035719294,0.10218793,-0.021178024,0.9945397,0.99476516,0.0021755272,-0.102164775,0.0,-0.9997734,-0.021289473,0.82360537109375,-0.24181436767578124,8.276755139160155,1.4779685,-0.08200286,14.447361,0.0178833
0.03397396635561481,0.03490658503988659,-0.015188361429568975,0.033051997,0.021985816,-0.0035719294,0.10218793,-0.021178024,0.9945397,0.99476516,0.0021755272,-0.102164775,0.0,-0.9997734,-0.021289473,0.8164227661132812,-0.11013327636718749,8.267178332519531,1.4925438,-0.08200286,14.594954,0.017852783
0.03264165394951227,0.028245023009373885,-0.01185758041431262,0.033051997,0.021985816,-0.0035719294,0.10218793,-0.021178024,0.9945397,0.99476516,0.0021755272,-0.102164775,0.0,-0.9997734,-0.021289473,0.9241618408203125,-0.17956512451171874,8.269572534179687,1.5090709,-0.08200286,14.742841,0.0178833
0.03264165394951227,0.028911179212425153,-0.01212404289553313,0.033051997,0.021985816,-0.0035719294,0.10218793,-0.021178024,0.9945397,0.99476516,0.0021755272,-0.102164775,0.0,-0.9997734,-0.021289473,0.8547299926757812,-0.19871873779296872,8.21690009765625,1.5243562,-0.08200286,14.889786,0.0178833
0.03130934154340973,0.027845329287543123,-0.013989280264076687,0.033051997,0.021985816,-0.0035719294,0.10218793,-0.021178024,0.9945397,0.99476516,0.0021755272,-0.102164775,0.0,-0.9997734,-0.021289473,0.8307879760742187,-0.17477672119140625,8.2743609375,1.5392134,-0.08200286,15.037759,0.0178833
0.03530627876171736,0.026779479362661087,-0.016254211354451008,0.033051997,0.021985816,-0.0035719294,0.10218793,-0.021178024,0.9945397,0.99476516,0.0021755272,-0.102164775,0.0,-0.9997734,-0.021289473,0.8355763793945312,-0.16998831787109375,8.200140686035155,1.5543858,-0.08200286,15.186657,0.018157959
0.031975497746460996,0.032241960227681506,-0.011990811654922875,0.033051997,0.021985816,-0.0035719294,0.10218793,-0.021178024,0.9945397,0.99476516,0.0021755272,-0.102164775,0.0,-0.9997734,-0.021289473,0.8954314208984374,-0.15083470458984374,8.312668164062499,1.5704263,-0.08200286,15.335568,0.017913818
0.036238897445989134,0.0287779479718149,-0.016520673835671518,0.033051997,0.021985816,-0.0035719294,0.10218793,-0.021178024,0.9945397,0.99476516,0.0021755272,-0.102164775,0.0,-0.9997734,-0.021289473,0.8259995727539062,-0.19632453613281248,8.322244970703125,1.5852232,-0.08200286,15.484652,0.017913818
0.032774885190122525,0.031042879062189218,-0.016254211354451008,0.033051997,0.021985816,-0.0035719294,0.10218793,-0.021178024,0.9945397,0.99476516,0.0021755272,-0.102164775,0.0,-0.9997734,-0.021289473,0.8355763793945312,-0.21308394775390624,8.238447912597655,1.6001916,-0.08582001,15.632234,0.017913818
0.030909647821578966,0.03264165394951227,-0.017986217482384312,0.033051997,0.021985816,-0.0035719294,0.10218793,-0.021178024,0.9945397,0.99476516,0.0021755272,-0.102164775,0.0,-0.9997734,-0.021289473,0.8643067993164062,-0.16519991455078123,8.300697155761718,1.6156746,-0.08582001,15.7809305,0.017913818
0.036771822408430146,0.029310872934255914,-0.017719755001163805,0.033051997,0.021985816,-0.0035719294,0.10218793,-0.021178024,0.9945397,0.99476516,0.0021755272,-0.102164775,0.0,-0.9997734,-0.021289473,0.8690952026367187,-0.1771709228515625,8.231265307617187,1.6312699,-0.08582001,15.928635,0.017944336
0.0334410413931738,0.03064318534035846,-0.015987748873230498,0.033051997,0.021985816,-0.0035719294,0.10218793,-0.021178024,0.9945397,0.99476516,0.0021755272,-0.102164775,0.0,-0.9997734,-0.021289473,0.82360537109375,-0.19632453613281248,8.267178332519531,1.646049,-0.08582001,16.076984,0.017944336
0.03264165394951227,0.03317457891195329,-0.017453292519943295,0.033051997,0.021985816,-0.0035719294,0.10218793,-0.021178024,0.9945397,0.99476516,0.0021755272,-0.102164775,0.0,-0.9997734,-0.021289473,0.8547299926757812,-0.19632453613281248,8.269572534179687,1.6613605,-0.08582001,16.225124,0.017913818
0.03290811643073278,0.03011026037791744,-0.013189892820415163,0.033051997,0.021985816,-0.0035719294,0.10218793,-0.021178024,0.9945397,0.99476516,0.0021755272,-0.102164775,0.0,-0.9997734,-0.021289473,0.8451531860351562,-0.17956512451171874,8.264784130859374,1.6765004,-0.08582001,16.373178,0.017913818
0.03477335379927634,0.029310872934255914,-0.015987748873230498,0.033051997,0.021985816,-0.0035719294,0.10218793,-0.021178024,0.9945397,0.99476516,0.0021755272,-0.102164775,0.0,-0.9997734,-0.021289473,0.8092401611328125,-0.1867477294921875,8.264784130859374,1.690997,-0.08582001,16.521233,0.017913818
0.03543951000232761,0.028378254249984136,-0.014788667707738212,0.033051997,0.021985816,-0.0035719294,0.10218793,-0.021178024,0.9945397,0.99476516,0.0021755272,-0.102164775,0.0,-0.9997734,-0.021289473,0.8667010009765624,-0.1484405029296875,8.288726147460936,1.7064965,-0.08582001,16.669462,0.0178833
0.027845329287543123,0.029577335415476424,-0.01505513018895872,0.033051997,0.021985816,-0.0035719294,0.10218793,-0.021178024,0.9945397,0.99476516,0.0021755272,-0.102164775,0.0,-0.9997734,-0.021289473,0.8379705810546875,-0.22266075439453123,8.197746484375,1.7214565,-0.08979513,16.815815,0.017852783
0.03144257278401998,0.029444104174866172,-0.017186830038722786,0.033051997,0.021985816,-0.0035719294,0.10218793,-0.021178024,0.9945397,0.99476516,0.0021755272,-0.102164775,0.0,-0.9997734,-0.021289473,0.8451531860351562,-0.201112939453125,8.298302954101562,1.7366222,-0.093403965,16.964722,0.017944336
0.032108728987071254,0.02851148549059439,-0.017986217482384312,0.033051997,0.021985816,-0.0035719294,0.10218793,-0.021178024,0.9945397,0.99476516,0.0021755272,-0.102164775,0.0,-0.9997734,-0.021289473,0.8475473876953125,-0.2442085693359375,8.271966735839843,1.7517792,-0.09777122,17.112652,0.0178833
0.031575804024630234,0.029444104174866172,-0.01945176112909711,0.033051997,0.021985816,-0.0035719294,0.10218793,-0.021178024,0.9945397,0.99476516,0.0021755272,-0.102164775,0.0,-0.9997734,-0.021289473,0.8475473876953125,-0.201112939453125,8.269572534179687,1.7669362,-0.10136779,17.26054,0.0178833
0.0305099540997482,0.0334410413931738,-0.013189892820415163,0.033051997,0.021985816,-0.0035719294,0.10218793,-0.021178024,0.9945397,0.99476516,0.0021755272,-0.102164775,0.0,-0.9997734,-0.021289473,0.842758984375,-0.15322890625,8.219294299316406,1.7820332,-0.10136779,17.40778,0.017913818
0.03477335379927634,0.03170903526524049,-0.013189892820415163,0.033051997,0.021985816,-0.0035719294,0.10218793,-0.021178024,0.9945397,0.99476516,0.0021755272,-0.102164775,0.0,-0.9997734,-0.021289473,0.8164227661132812,-0.13646949462890623,8.250418920898436,1.7969077,-0.10136779,17.558094,0.018218994
0.032241960227681506,0.02904441045303541,-0.01372281778285618,0.033051997,0.021985816,-0.0035719294,0.10218793,-0.021178024,0.9945397,0.99476516,0.0021755272,-0.102164775,0.0,-0.9997734,-0.021289473,0.7948749511718749,-0.16280571289062498,8.319850769042969,1.8111227,-0.10136779,17.70688,0.0178833
0.031842266505850744,0.026379785640830326,-0.014921898948348467,0.033051997,0.021985816,-0.0035719294,0.10218793,-0.021178024,0.9945397,0.99476516,0.0021755272,-0.102164775,0.0,-0.9997734,-0.021289473,0.9361328491210937,-0.09576806640624999,8.259995727539062,1.8278638,-0.10136779,17.854597,0.0178833
0.03503981628049684,0.03130934154340973,-0.01372281778285618,0.033051997,0.021985816,-0.0035719294,0.10218793,-0.021178024,0.9945397,0.99476516,0.0021755272,-0.102164775,0.0,-0.9997734,-0.021289473,0.8738836059570312,-0.16519991455078123,8.307879760742187,1.8435451,-0.10136779,18.003677,0.017944336
0.033307810152563545,0.032241960227681506,-0.014655436467127957,0.033051997,0.021985816,-0.0035719294,0.10218793,-0.021178024,0.9945397,0.99476516,0.0021755272,-0.102164775,0.0,-0.9997734,-0.021289473,0.8212111694335937,-0.181959326171875,8.238447912597655,1.858206,-0.10136779,18.150757,0.017852783
0.03357427263378405,0.03370750387439431,-0.01372281778285618,0.033051997,0.021985816,-0.0035719294,0.10218793,-0.021178024,0.9945397,0.99476516,0.0021755272,-0.102164775,0.0,-0.9997734,-0.021289473,0.9026140258789062,-0.17956512451171874,8.259995727539062,1.8743201,-0.10136779,18.298222,0.017852783
0.033041347671343035,0.031042879062189218,-0.01345635530163567,0.033051997,0.021985816,-0.0035719294,0.10218793,-0.021178024,0.9945397,0.99476516,0.0021755272,-0.102164775,0.0,-0.9997734,-0.021289473,0.8355763793945312,-0.21308394775390624,8.233659509277343,1.8892375,-0.10517193,18.445215,0.017852783
0.02997702913730719,0.028911179212425153,-0.01572128639200999,0.033051997,0.021985816,-0.0035719294,0.10218793,-0.021178024,0.9945397,0.99476516,0.0021755272,-0.102164775,0.0,-0.9997734,-0.021289473,0.8643067993164062,-0.143652099609375,8.28633194580078,1.9046942,-0.10517193,18.593403,0.0178833
0.033307810152563545,0.0302434916185277,-0.01345635530163567,0.033051997,0.021985816,-0.0035719294,0.10218793,-0.021178024,0.9945397,0.99476516,0.0021755272,-0.102164775,0.0,-0.9997734,-0.021289473,0.8020575561523438,-0.143652099609375,8.298302954101562,1.9190621,-0.10517193,18.742058,0.017913818
0.03144257278401998,0.03011026037791744,-0.015454823910789483,0.033051997,0.021985816,-0.0035719294,0.10218793,-0.021178024,0.9945397,0.99476516,0.0021755272,-0.102164775,0.0,-0.9997734,-0.021289473,0.9097966308593749,-0.18914193115234373,8.322244970703125,1.9353601,-0.10517193,18.891142,0.017913818
0.0334410413931738,0.029843797896696934,-0.015588055151399738,0.033051997,0.021985816,-0.0035719294,0.10218793,-0.021178024,0.9945397,0.99476516,0.0021755272,-0.102164775,0.0,-0.9997734,-0.021289473,0.8451531860351562,-0.19153613281249998,8.319850769042969,1.9505774,-0.10517193,19.040943,0.018005371
0.03410719759622506,0.027312404325102103,-0.015588055151399738,0.033051997,0.021985816,-0.0035719294,0.10218793,-0.021178024,0.9945397,0.99476516,0.0021755272,-0.102164775,0.0,-0.9997734,-0.021289473,0.8092401611328125,-0.181959326171875,8.319850769042969,1.9651233,-0.10517193,19.19049,0.017974854
0.03264165394951227,0.031042879062189218,-0.01692036755750228,0.033051997,0.021985816,-0.0035719294,0.10218793,-0.021178024,0.9945397,0.99476516,0.0021755272,-0.102164775,0.0,-0.9997734,-0.021289473,0.8643067993164062,-0.1484405029296875,8.214505895996094,1.98058,-0.10517193,19.337393,0.0178833
0.033307810152563545,0.029310872934255914,-0.01851914244482533,0.033051997,0.021985816,-0.0035719294,0.10218793,-0.021178024,0.9945397,0.99476516,0.0021755272,-0.102164775,0.0,-0.9997734,-0.021289473,0.9026140258789062,-0.16759411621093748,8.295908752441406,1.9967493,-0.10517193,19.486004,0.017913818
0.03290811643073278,0.03170903526524049,-0.01572128639200999,0.033051997,0.021985816,-0.0035719294,0.10218793,-0.021178024,0.9945397,0.99476516,0.0021755272,-0.102164775,0.0,-0.9997734,-0.021289473,0.8092401611328125,-0.17238251953125,8.295908752441406,2.011246,-0.10517193,19.634615,0.017913818
0.032375191468291764,0.027712098046932865,-0.016387442595061263,0.033051997,0.021985816,-0.0035719294,0.10218793,-0.021178024,0.9945397,0.99476516,0.0021755272,-0.102164775,0.0,-0.9997734,-0.021289473,0.8810662109374999,-0.16998831787109375,8.271966735839843,2.0270023,-0.10517193,19.782545,0.0178833
0.03037672285913795,0.025047473234727783,-0.01732006127933304,0.033051997,0.021985816,-0.0035719294,0.10218793,-0.021178024,0.9945397,0.99476516,0.0021755272,-0.102164775,0.0,-0.9997734,-0.021289473,0.8116343627929687,-0.15562310791015624,8.288726147460936,2.0417895,-0.10517193,19.933558,0.018218994
0.03557274124293786,0.027312404325102103,-0.01532159267017923,0.033051997,0.021985816,-0.0035719294,0.10218793,-0.021178024,0.9945397,0.99476516,0.0021755272,-0.102164775,0.0,-0.9997734,-0.021289473,0.8355763793945312,-0.12689268798828124,8.226476904296874,2.0567834,-0.10517193,20.081177,0.017944336
0.031975497746460996,0.028911179212425153,-0.017852986241774057,0.033051997,0.021985816,-0.0035719294,0.10218793,-0.021178024,0.9945397,0.99476516,0.0021755272,-0.102164775,0.0,-0.9997734,-0.021289473,0.7852981445312499,-0.13407529296874998,8.262389929199218,2.070851,-0.10517193,20.229187,0.017913818
0.032774885190122525,0.02851148549059439,-0.014655436467127957,0.033051997,0.021985816,-0.0035719294,0.10218793,-0.021178024,0.9945397,0.99476516,0.0021755272,-0.102164775,0.0,-0.9997734,-0.021289473,0.8667010009765624,-0.181959326171875,8.300697155761718,2.086377,-0.10517193,20.377884,0.017913818
0.028911179212425153,0.02904441045303541,-0.012523736617363892,0.033051997,0.021985816,-0.0035719294,0.10218793,-0.021178024,0.9945397,0.99476516,0.0021755272,-0.102164775,0.0,-0.9997734,-0.021289473,0.8475473876953125,-0.1771709228515625,8.228871105957031,2.1015596,-0.10517193,20.525295,0.017913818
0.032108728987071254,0.029310872934255914,-0.01345635530163567,0.033051997,0.021985816,-0.0035719294,0.10218793,-0.021178024,0.9945397,0.99476516,0.0021755272,-0.102164775,0.0,-0.9997734,-0.021289473,0.8810662109374999,-0.2442085693359375,8.259995727539062,2.11737,-0.10955409,20.673515,0.017944336
0.03490658503988659,0.027978560528153375,-0.013323124061025418,0.033051997,0.021985816,-0.0035719294,0.10218793,-0.021178024,0.9945397,0.99476516,0.0021755272,-0.102164775,0.0,-0.9997734,-0.021289473,0.9409212524414062,-0.143652099609375,8.214505895996094,2.1342254,-0.10955409,20.82067,0.017913818
0.03317457891195329,0.031975497746460996,-0.0127901990985844,0.033051997,0.021985816,-0.0035719294,0.10218793,-0.021178024,0.9945397,0.99476516,0.0021755272,-0.102164775,0.0,-0.9997734,-0.021289473,0.842758984375,-0.19632453613281248,8.25520732421875,2.149348,-0.10955409,20.968803,0.017944336
0.033041347671343035,0.029310872934255914,-0.01692036755750228,0.033051997,0.021985816,-0.0035719294,0.10218793,-0.021178024,0.9945397,0.99476516,0.0021755272,-0.102164775,0.0,-0.9997734,-0.021289473,0.8858546142578124,-0.2705447875976562,8.298302954101562,2.1652172,-0.11440058,21.117458,0.017913818
0.03530627876171736,0.0302434916185277,-0.019052067407266345,0.033051997,0.021985816,-0.0035719294,0.10218793,-0.021178024,0.9945397,0.99476516,0.0021755272,-0.102164775,0.0,-0.9997734,-0.021289473,0.8547299926757812,-0.20350714111328125,8.240842114257813,2.1805286,-0.11804617,21.265083,0.017913818
0.03037672285913795,0.028378254249984136,-0.015588055151399738,0.033051997,0.021985816,-0.0035719294,0.10218793,-0.021178024,0.9945397,0.99476516,0.0021755272,-0.102164775,0.0,-0.9997734,-0.021289473,0.8690952026367187,-0.12449848632812499,8.259995727539062,2.1960974,-0.11804617,21.413052,0.017913818
0.03450689131805583,0.02971056665608668,-0.014788667707738212,0.033051997,0.021985816,-0.0035719294,0.10218793,-0.021178024,0.9945397,0.99476516,0.0021755272,-0.102164775,0.0,-0.9997734,-0.021289473,0.8020575561523438,-0.20829554443359374,8.269572534179687,2.2104652,-0.12177754,21.561192,0.017913818
0.031176110302799476,0.028245023009373885,-0.017453292519943295,0.033051997,0.021985816,-0.0035719294,0.10218793,-0.021178024,0.9945397,0.99476516,0.0021755272,-0.102164775,0.0,-0.9997734,-0.021289473,0.8044517578125,-0.19871873779296872,8.262389929199218,2.2248514,-0.12177754,21.70895,0.0178833
0.033041347671343035,0.032508422708902016,-0.015188361429568975,0.033051997,0.021985816,-0.0035719294,0.10218793,-0.021178024,0.9945397,0.99476516,0.0021755272,-0.102164775,0.0,-0.9997734,-0.021289473,0.8786720092773437,-0.201112939453125,8.33182177734375,2.2405918,-0.12538025,21.858204,0.017913818
0.030909647821578966,0.02997702913730719,-0.016387442595061263,0.033051997,0.021985816,-0.0035719294,0.10218793,-0.021178024,0.9945397,0.99476516,0.0021755272,-0.102164775,0.0,-0.9997734,-0.021289473,0.8978256225585937,-0.20350714111328125,8.283937744140625,2.2566752,-0.12902583,22.006601,0.017913818
0.03130934154340973,0.02531393571594829,-0.013989280264076687,0.033051997,0.021985816,-0.0035719294,0.10218793,-0.021178024,0.9945397,0.99476516,0.0021755272,-0.102164775,0.0,-0.9997734,-0.021289473,0.8595183959960937,-0.21068974609375,8.233659509277343,2.2723348,-0.13286439,22.15661,0.018218994
0.03264165394951227,0.02997702913730719,-0.015987748873230498,0.033051997,0.021985816,-0.0035719294,0.10218793,-0.021178024,0.9945397,0.99476516,0.0021755272,-0.102164775,0.0,-0.9997734,-0.021289473,0.8259995727539062,-0.1292868896484375,8.303091357421874,2.2871568,-0.13286439,22.305603,0.017944336
0.03264165394951227,0.029310872934255914,-0.01505513018895872,0.033051997,0.021985816,-0.0035719294,0.10218793,-0.021178024,0.9945397,0.99476516,0.0021755272,-0.102164775,0.0,-0.9997734,-0.021289473,0.8810662109374999,-0.1149216796875,8.257601525878906,2.3029401,-0.13286439,22.453527,0.017913818
0.03264165394951227,0.0305099540997482,-0.012656967857974145,0.033051997,0.021985816,-0.0035719294,0.10218793,-0.021178024,0.9945397,0.99476516,0.0021755272,-0.102164775,0.0,-0.9997734,-0.021289473,0.8307879760742187,-0.19632453613281248,8.257601525878906,2.3178227,-0.13286439,22.601452,0.017913818
0.032508422708902016,0.029843797896696934,-0.016387442595061263,0.033051997,0.021985816,-0.0035719294,0.10218793,-0.021178024,0.9945397,0.99476516,0.0021755272,-0.102164775,0.0,-0.9997734,-0.021289473,0.8451531860351562,-0.1771709228515625,8.250418920898436,2.3329625,-0.13286439,22.749249,0.017913818
0.03437366007744557,0.029177641693645662,-0.016387442595061263,0.033051997,0.021985816,-0.0035719294,0.10218793,-0.021178024,0.9945397,0.99476516,0.0021755272,-0.102164775,0.0,-0.9997734,-0.021289473,0.8690952026367187,-0.1867477294921875,8.346186987304687,2.3485312,-0.13286439,22.89876,0.017913818
0.03011026037791744,0.02997702913730719,-0.013189892820415163,0.033051997,0.021985816,-0.0035719294,0.10218793,-0.021178024,0.9945397,0.99476516,0.0021755272,-0.102164775,0.0,-0.9997734,-0.021289473,0.8475473876953125,-0.09337386474609374,8.298302954101562,2.363714,-0.13286439,23.047415,0.017913818
0.03464012255866608,0.029577335415476424,-0.01572128639200999,0.033051997,0.021985816,-0.0035719294,0.10218793,-0.021178024,0.9945397,0.99476516,0.0021755272,-0.102164775,0.0,-0.9997734,-0.021289473,0.8595183959960937,-0.2059013427734375,8.298302954101562,2.379085,-0.13654658,23.195816,0.0178833
0.03130934154340973,0.032108728987071254,-0.01438897398590745,0.033051997,0.021985816,-0.0035719294,0.10218793,-0.021178024,0.9945397,0.99476516,0.0021755272,-0.102164775,0.0,-0.9997734,-0.021289473,0.8379705810546875,-0.18914193115234373,8.279149340820313,2.394045,-0.13654658,23.343622,0.017852783
0.031975497746460996,0.0302434916185277,-0.016520673835671518,0.033051997,0.021985816,-0.0035719294,0.10218793,-0.021178024,0.9945397,0.99476516,0.0021755272,-0.102164775,0.0,-0.9997734,-0.021289473,0.8858546142578124,-0.11252747802734374,8.243236315917969,2.4099143,-0.13654658,23.49129,0.017913818
0.03130934154340973,0.031176110302799476,-0.015188361429568975,0.033051997,0.021985816,-0.0035719294,0.10218793,-0.021178024,0.9945397,0.99476516,0.0021755272,-0.102164775,0.0,-0.9997734,-0.021289473,0.8954314208984374,-0.143652099609375,8.238447912597655,2.4259276,-0.13654658,23.63862,0.0178833
0.03011026037791744,0.0305099540997482,-0.01505513018895872,0.033051997,0.021985816,-0.0035719294,0.10218793,-0.021178024,0.9945397,0.99476516,0.0021755272,-0.102164775,0.0,-0.9997734,-0.021289473,0.8451531860351562,-0.11013327636718749,8.231265307617187,2.4410417,-0.13654658,23.785822,0.0178833
0.032774885190122525,0.0302434916185277,-0.016520673835671518,0.033051997,0.021985816,-0.0035719294,0.10218793,-0.021178024,0.9945397,0.99476516,0.0021755272,-0.102164775,0.0,-0.9997734,-0.021289473,0.928950244140625,-0.2154781494140625,8.233659509277343,2.4576828,-0.14040662,23.93332,0.017913818
0.03477335379927634,0.02997702913730719,-0.01705359879811253,0.033051997,0.021985816,-0.0035719294,0.10218793,-0.021178024,0.9945397,0.99476516,0.0021755272,-0.102164775,0.0,-0.9997734,-0.021289473,0.852335791015625,-0.181959326171875,8.322244970703125,2.4729774,-0.14040662,24.082657,0.017944336
0.031975497746460996,0.028911179212425153,-0.01945176112909711,0.033051997,0.021985816,-0.0035719294,0.10218793,-0.021178024,0.9945397,0.99476516,0.0021755272,-0.102164775,0.0,-0.9997734,-0.021289473,0.8451531860351562,-0.21787235107421873,8.32463917236328,2.4880915,-0.1443029,24.23153,0.0178833
0.03450689131805583,0.03037672285913795,-0.017453292519943295,0.033051997,0.021985816,-0.0035719294,0.10218793,-0.021178024,0.9945397,0.99476516,0.0021755272,-0.102164775,0.0,-0.9997734,-0.021289473,0.8547299926757812,-0.201112939453125,8.279149340820313,2.503377,-0.14789946,24.379587,0.0178833
0.03264165394951227,0.026379785640830326,-0.014255742745297196,0.033051997,0.021985816,-0.0035719294,0.10218793,-0.021178024,0.9945397,0.99476516,0.0021755272,-0.102164775,0.0,-0.9997734,-0.021289473,0.833182177734375,-0.17477672119140625,8.262389929199218,2.5185313,-0.14789946,24.529867,0.018188477
0.03477335379927634,0.025180704475338038,-0.014522205226517705,0.033051997,0.021985816,-0.0035719294,0.10218793,-0.021178024,0.9945397,0.99476516,0.0021755272,-0.102164775,0.0,-0.9997734,-0.021289473,0.842758984375,-0.11252747802734374,8.207323291015625,2.533654,-0.14789946,24.677141,0.017944336
0.031575804024630234,0.029577335415476424,-0.017186830038722786,0.033051997,0.021985816,-0.0035719294,0.10218793,-0.021178024,0.9945397,0.99476516,0.0021755272,-0.102164775,0.0,-0.9997734,-0.021289473,0.8259995727539062,-0.16280571289062498,8.269572534179687,2.5484257,-0.14789946,24.82503,0.0178833
0.0369050536490404,0.031042879062189218,-0.012523736617363892,0.033051997,0.021985816,-0.0035719294,0.10218793,-0.021178024,0.9945397,0.99476516,0.0021755272,-0.102164775,0.0,-0.9997734,-0.021289473,0.86191259765625,-0.12449848632812499,8.382100012207031,2.563866,-0.14789946,24.975185,0.017913818
0.03317457891195329,0.02851148549059439,-0.016787136316892024,0.033051997,0.021985816,-0.0035719294,0.10218793,-0.021178024,0.9945397,0.99476516,0.0021755272,-0.102164775,0.0,-0.9997734,-0.021289473,0.8690952026367187,-0.22744915771484372,8.243236315917969,2.5794082,-0.151967,25.122602,0.0178833
0.03583920372415837,0.03170903526524049,-0.017186830038722786,0.033051997,0.021985816,-0.0035719294,0.10218793,-0.021178024,0.9945397,0.99476516,0.0021755272,-0.102164775,0.0,-0.9997734,-0.021289473,0.7781155395507812,-0.15083470458984374,8.343792785644531,2.5933235,-0.151967,25.271816,0.0178833
0.032508422708902016,0.029310872934255914,-0.015854517632620246,0.033051997,0.021985816,-0.0035719294,0.10218793,-0.021178024,0.9945397,0.99476516,0.0021755272,-0.102164775,0.0,-0.9997734,-0.021289473,0.9050082275390624,-0.16280571289062498,8.183381274414062,2.610751,-0.151967,25.4294,0.019256592
0.03317457891195329,0.03064318534035846,-0.015188361429568975,0.033051997,0.021985816,-0.0035719294,0.10218793,-0.021178024,0.9945397,0.99476516,0.0021755272,-0.102164775,0.0,-0.9997734,-0.021289473,0.8259995727539062,-0.13407529296874998,8.226476904296874,2.6280432,-0.151967,25.601622,0.020935059
0.02691271060327134,0.03037672285913795,-0.014522205226517705,0.033051997,0.021985816,-0.0035719294,0.10218793,-0.021178024,0.9945397,0.99476516,0.0021755272,-0.102164775,0.0,-0.9997734,-0.021289473,0.8571241943359375,-0.2059013427734375,8.259995727539062,2.6460133,-0.15628384,25.774797,0.020965576
0.03144257278401998,0.031176110302799476,-0.016387442595061263,0.033051997,0.021985816,-0.0035719294,0.10218793,-0.021178024,0.9945397,0.99476516,0.0021755272,-0.102164775,0.0,-0.9997734,-0.021289473,0.8499415893554687,-0.17238251953125,8.264784130859374,2.663807,-0.15628384,25.94782,0.020935059
0.033307810152563545,0.02691271060327134,-0.01505513018895872,0.033051997,0.021985816,-0.0035719294,0.10218793,-0.021178024,0.9945397,0.99476516,0.0021755272,-0.102164775,0.0,-0.9997734,-0.021289473,0.8547299926757812,-0.17477672119140625,8.250418920898436,2.681753,-0.15628384,26.121048,0.020996094
0.029843797896696934,0.028378254249984136,-0.01438897398590745,0.033051997,0.021985816,-0.0035719294,0.10218793,-0.021178024,0.9945397,0.99476516,0.0021755272,-0.102164775,0.0,-0.9997734,-0.021289473,0.8595183959960937,-0.16519991455078123,8.327033374023436,2.6988552,-0.15628384,26.286736,0.019897461
0.03543951000232761,0.031042879062189218,-0.016520673835671518,0.033051997,0.021985816,-0.0035719294,0.10218793,-0.021178024,0.9945397,0.99476516,0.0021755272,-0.102164775,0.0,-0.9997734,-0.021289473,0.82360537109375,-0.19153613281249998,8.32463917236328,2.7151926,-0.15628384,26.451866,0.019836426
0.033041347671343035,0.031176110302799476,-0.01705359879811253,0.033051997,0.021985816,-0.0035719294,0.10218793,-0.021178024,0.9945397,0.99476516,0.0021755272,-0.102164775,0.0,-0.9997734,-0.021289473,0.8571241943359375,-0.20350714111328125,8.327033374023436,2.7321165,-0.16030206,26.616282,0.019744873
0.03011026037791744,0.02691271060327134,-0.017586523760553547,0.033051997,0.021985816,-0.0035719294,0.10218793,-0.021178024,0.9945397,0.99476516,0.0021755272,-0.102164775,0.0,-0.9997734,-0.021289473,0.8643067993164062,-0.19632453613281248,8.307879760742187,2.7492085,-0.16030206,26.780573,0.01977539
0.031176110302799476,0.026379785640830326,-0.013856049023466432,0.033051997,0.021985816,-0.0035719294,0.10218793,-0.021178024,0.9945397,0.99476516,0.0021755272,-0.102164775,0.0,-0.9997734,-0.021289473,0.9097966308593749,-0.2657563842773437,8.283937744140625,2.7672834,-0.16558182,26.945148,0.019866943
0.03144257278401998,0.03037672285913795,-0.01692036755750228,0.033051997,0.021985816,-0.0035719294,0.10218793,-0.021178024,0.9945397,0.99476516,0.0021755272,-0.102164775,0.0,-0.9997734,-0.021289473,0.8930372192382812,-0.19153613281249998,8.257601525878906,2.785734,-0.16558182,27.115753,0.0206604
0.03437366007744557,0.032108728987071254,-0.016387442595061263,0.033051997,0.021985816,-0.0035719294,0.10218793,-0.021178024,0.9945397,0.99476516,0.0021755272,-0.102164775,0.0,-0.9997734,-0.021289473,0.852335791015625,-0.181959326171875,8.228871105957031,2.8026152,-0.16558182,27.278734,0.019805908
0.031842266505850744,0.027045941843881597,-0.012656967857974145,0.033051997,0.021985816,-0.0035719294,0.10218793,-0.021178024,0.9945397,0.99476516,0.0021755272,-0.102164775,0.0,-0.9997734,-0.021289473,0.8547299926757812,-0.13407529296874998,8.310273962402343,2.819831,-0.16558182,27.446115,0.020141602
0.03397396635561481,0.033041347671343035,-0.017586523760553547,0.033051997,0.021985816,-0.0035719294,0.10218793,-0.021178024,0.9945397,0.99476516,0.0021755272,-0.102164775,0.0,-0.9997734,-0.021289473,0.8858546142578124,-0.2561795776367187,8.231265307617187,2.8375113,-0.17069478,27.6104,0.019958496
0.03064318534035846,0.03077641658096871,-0.019318529888486854,0.033051997,0.021985816,-0.0035719294,0.10218793,-0.021178024,0.9945397,0.99476516,0.0021755272,-0.102164775,0.0,-0.9997734,-0.021289473,0.8451531860351562,-0.19871873779296872,8.259995727539062,2.8542504,-0.17069478,27.773996,0.019805908
0.032241960227681506,0.029843797896696934,-0.017186830038722786,0.033051997,0.021985816,-0.0035719294,0.10218793,-0.021178024,0.9945397,0.99476516,0.0021755272,-0.102164775,0.0,-0.9997734,-0.021289473,0.7829039428710937,-0.19632453613281248,8.288726147460936,2.8697565,-0.17069478,27.938162,0.019805908
0.03384073511500456,0.03144257278401998,-0.01851914244482533,0.033051997,0.021985816,-0.0035719294,0.10218793,-0.021178024,0.9945397,0.99476516,0.0021755272,-0.102164775,0.0,-0.9997734,-0.021289473,0.8595183959960937,-0.229843359375,8.24802471923828,2.88678,-0.17524704,28.10152,0.019805908
0.031842266505850744,0.03064318534035846,-0.016787136316892024,0.033051997,0.021985816,-0.0035719294,0.10218793,-0.021178024,0.9945397,0.99476516,0.0021755272,-0.102164775,0.0,-0.9997734,-0.021289473,0.7900865478515624,-0.20350714111328125,8.276755139160155,2.9024765,-0.1792901,28.265955,0.019866943
0.03437366007744557,0.027978560528153375,-0.014522205226517705,0.033051997,0.021985816,-0.0035719294,0.10218793,-0.021178024,0.9945397,0.99476516,0.0021755272,-0.102164775,0.0,-0.9997734,-0.021289473,0.8307879760742187,-0.14125789794921875,8.291120349121094,2.918931,-0.1792901,28.430168,0.019805908
0.0334410413931738,0.03077641658096871,-0.013323124061025418,0.033051997,0.021985816,-0.0035719294,0.10218793,-0.021178024,0.9945397,0.99476516,0.0021755272,-0.102164775,0.0,-0.9997734,-0.021289473,0.8451531860351562,-0.1388636962890625,8.315062365722655,2.9356701,-0.1792901,28.594856,0.019805908
0.032508422708902016,0.031842266505850744,-0.0127901990985844,0.033051997,0.021985816,-0.0035719294,0.10218793,-0.021178024,0.9945397,0.99476516,0.0021755272,-0.102164775,0.0,-0.9997734,-0.021289473,0.842758984375,-0.1388636962890625,8.262389929199218,2.9523876,-0.1792901,28.758753,0.019836426
0.032375191468291764,0.0305099540997482,-0.018252679963604822,0.033051997,0.021985816,-0.0035719294,0.10218793,-0.021178024,0.9945397,0.99476516,0.0021755272,-0.102164775,0.0,-0.9997734,-0.021289473,0.8475473876953125,-0.19632453613281248,8.28633194580078,2.9692,-0.1792901,28.923124,0.019836426
0.032375191468291764,0.0287779479718149,-0.01572128639200999,0.033051997,0.021985816,-0.0035719294,0.10218793,-0.021178024,0.9945397,0.99476516,0.0021755272,-0.102164775,0.0,-0.9997734,-0.021289473,0.8547299926757812,-0.17477672119140625,8.312668164062499,2.9862068,-0.1792901,29.088526,0.019897461
0.031842266505850744,0.028111791768763626,-0.014788667707738212,0.033051997,0.021985816,-0.0035719294,0.10218793,-0.021178024,0.9945397,0.99476516,0.0021755272,-0.102164775,0.0,-0.9997734,-0.021289473,0.8667010009765624,-0.19632453613281248,8.2743609375,3.0034254,-0.1792901,29.252913,0.019866943
0.032108728987071254,0.027045941843881597,-0.017986217482384312,0.033051997,0.021985816,-0.0035719294,0.10218793,-0.021178024,0.9945397,0.99476516,0.0021755272,-0.102164775,0.0,-0.9997734,-0.021289473,0.9097966308593749,-0.181959326171875,8.279149340820313,3.021528,-0.1792901,29.417646,0.019897461
0.03317457891195329,0.0302434916185277,-0.01705359879811253,0.033051997,0.021985816,-0.0035719294,0.10218793,-0.021178024,0.9945397,0.99476516,0.0021755272,-0.102164775,0.0,-0.9997734,-0.021289473,0.8164227661132812,-0.17238251953125,8.17859287109375,3.0381713,-0.1792901,29.584373,0.020385742
0.030909647821578966,0.02598009191899956,-0.016387442595061263,0.033051997,0.021985816,-0.0035719294,0.10218793,-0.021178024,0.9945397,0.99476516,0.0021755272,-0.102164775,0.0,-0.9997734,-0.021289473,0.8643067993164062,-0.19632453613281248,8.228871105957031,3.0553424,-0.1792901,29.747856,0.019866943
0.032375191468291764,0.029577335415476424,-0.013989280264076687,0.033051997,0.021985816,-0.0035719294,0.10218793,-0.021178024,0.9945397,0.99476516,0.0021755272,-0.102164775,0.0,-0.9997734,-0.021289473,0.8403647827148437,-0.21787235107421873,8.334215979003906,3.0720122,-0.18361191,29.913177,0.019836426
0.033307810152563545,0.03130934154340973,-0.015854517632620246,0.033051997,0.021985816,-0.0035719294,0.10218793,-0.021178024,0.9945397,0.99476516,0.0021755272,-0.102164775,0.0,-0.9997734,-0.021289473,0.8355763793945312,-0.1867477294921875,8.24802471923828,3.088587,-0.18361191,30.076788,0.019836426
0.032375191468291764,0.027845329287543123,-0.015188361429568975,0.033051997,0.021985816,-0.0035719294,0.10218793,-0.021178024,0.9945397,0.99476516,0.0021755272,-0.102164775,0.0,-0.9997734,-0.021289473,0.8283937744140625,-0.1580173095703125,8.259995727539062,3.104994,-0.18361191,30.240385,0.019805908
0.03264165394951227,0.03064318534035846,-0.014788667707738212,0.033051997,0.021985816,-0.0035719294,0.10218793,-0.021178024,0.9945397,0.99476516,0.0021755272,-0.102164775,0.0,-0.9997734,-0.021289473,0.8475473876953125,-0.1771709228515625,8.264784130859374,3.1218581,-0.18361191,30.404833,0.019897461
0.03144257278401998,0.0305099540997482,-0.015188361429568975,0.033051997,0.021985816,-0.0035719294,0.10218793,-0.021178024,0.9945397,0.99476516,0.0021755272,-0.102164775,0.0,-0.9997734,-0.021289473,0.8858546142578124,-0.21068974609375,8.233659509277343,3.1394844,-0.1878041,30.568663,0.019897461
0.032108728987071254,0.031176110302799476,-0.013056661579804908,0.033051997,0.021985816,-0.0035719294,0.10218793,-0.021178024,0.9945397,0.99476516,0.0021755272,-0.102164775,0.0,-0.9997734,-0.021289473,0.8714894042968749,-0.16041151123046873,8.240842114257813,3.1567981,-0.1878041,30.732384,0.019866943
0.033307810152563545,0.028378254249984136,-0.013589586542245924,0.033051997,0.021985816,-0.0035719294,0.10218793,-0.021178024,0.9945397,0.99476516,0.0021755272,-0.102164775,0.0,-0.9997734,-0.021289473,0.7924807495117187,-0.17956512451171874,8.312668164062499,3.172518,-0.1878041,30.897278,0.019836426
0.031176110302799476,0.031176110302799476,-0.017986217482384312,0.033051997,0.021985816,-0.0035719294,0.10218793,-0.021178024,0.9945397,0.99476516,0.0021755272,-0.102164775,0.0,-0.9997734,-0.021289473,0.9050082275390624,-0.15322890625,8.231265307617187,3.1904979,-0.1878041,31.060808,0.019866943
0.031842266505850744,0.027845329287543123,-0.016520673835671518,0.033051997,0.021985816,-0.0035719294,0.10218793,-0.021178024,0.9945397,0.99476516,0.0021755272,-0.102164775,0.0,-0.9997734,-0.021289473,0.8499415893554687,-0.1292868896484375,8.28633194580078,3.2073576,-0.1878041,31.22518,0.019836426
0.031575804024630234,0.029843797896696934,-0.014522205226517705,0.033051997,0.021985816,-0.0035719294,0.10218793,-0.021178024,0.9945397,0.99476516,0.0021755272,-0.102164775,0.0,-0.9997734,-0.021289473,0.8882488159179687,-0.2059013427734375,8.298302954101562,3.2250044,-0.19189474,31.390041,0.019866943
0.03543951000232761,0.0305099540997482,-0.01692036755750228,0.033051997,0.021985816,-0.0035719294,0.10218793,-0.021178024,0.9945397,0.99476516,0.0021755272,-0.102164775,0.0,-0.9997734,-0.021289473,0.86191259765625,-0.18914193115234373,8.240842114257813,3.242128,-0.19189474,31.553762,0.019866943
0.031176110302799476,0.03037672285913795,-0.017186830038722786,0.033051997,0.021985816,-0.0035719294,0.10218793,-0.021178024,0.9945397,0.99476516,0.0021755272,-0.102164775,0.0,-0.9997734,-0.021289473,0.8930372192382812,-0.16998831787109375,8.269572534179687,3.2598698,-0.19189474,31.718054,0.019866943
0.03170903526524049,0.03077641658096871,-0.015454823910789483,0.033051997,0.021985816,-0.0035719294,0.10218793,-0.021178024,0.9945397,0.99476516,0.0021755272,-0.102164775,0.0,-0.9997734,-0.021289473,0.8978256225585937,-0.14604630126953125,8.240842114257813,3.2776794,-0.19189474,31.881523,0.019836426
0.03130934154340973,0.028245023009373885,-0.014921898948348467,0.033051997,0.021985816,-0.0035719294,0.10218793,-0.021178024,0.9945397,0.99476516,0.0021755272,-0.102164775,0.0,-0.9997734,-0.021289473,0.8499415893554687,-0.17956512451171874,8.276755139160155,3.2945912,-0.19189474,32.04621,0.019897461
0.03530627876171736,0.028378254249984136,-0.01505513018895872,0.033051997,0.021985816,-0.0035719294,0.10218793,-0.021178024,0.9945397,0.99476516,0.0021755272,-0.102164775,0.0,-0.9997734,-0.021289473,0.8810662109374999,-0.13646949462890623,8.279149340820313,3.3124986,-0.19189474,32.21448,0.020324707
0.03170903526524049,0.029444104174866172,-0.014788667707738212,0.033051997,0.021985816,-0.0035719294,0.10218793,-0.021178024,0.9945397,0.99476516,0.0021755272,-0.102164775,0.0,-0.9997734,-0.021289473,0.852335791015625,-0.181959326171875,8.281543542480469,3.329458,-0.19189474,32.379265,0.019897461
0.03011026037791744,0.03064318534035846,-0.014255742745297196,0.033051997,0.021985816,-0.0035719294,0.10218793,-0.021178024,0.9945397,0.99476516,0.0021755272,-0.102164775,0.0,-0.9997734,-0.021289473,0.8738836059570312,-0.20350714111328125,8.372523205566406,3.346846,-0.19594401,32.545856,0.019897461
0.032108728987071254,0.026513016881440577,-0.01372281778285618,0.033051997,0.021985816,-0.0035719294,0.10218793,-0.021178024,0.9945397,0.99476516,0.0021755272,-0.102164775,0.0,-0.9997734,-0.021289473,0.8499415893554687,-0.22266075439453123,8.348581188964843,3.36368,-0.20035401,32.71121,0.019805908
0.03290811643073278,0.03370750387439431,-0.014522205226517705,0.033051997,0.021985816,-0.0035719294,0.10218793,-0.021178024,0.9945397,0.99476516,0.0021755272,-0.102164775,0.0,-0.9997734,-0.021289473,0.8355763793945312,-0.14604630126953125,8.226476904296874,3.3802547,-0.20035401,32.874393,0.019836426
0.03077641658096871,0.029177641693645662,-0.016653905076281773,0.033051997,0.021985816,-0.0035719294,0.10218793,-0.021178024,0.9945397,0.99476516,0.0021755272,-0.102164775,0.0,-0.9997734,-0.021289473,0.9026140258789062,-0.1771709228515625,8.25520732421875,3.3981318,-0.20035401,33.037895,0.019805908
0.03144257278401998,0.02744563556571236,-0.01505513018895872,0.033051997,0.021985816,-0.0035719294,0.10218793,-0.021178024,0.9945397,0.99476516,0.0021755272,-0.102164775,0.0,-0.9997734,-0.021289473,0.833182177734375,-0.1580173095703125,8.281543542480469,3.4146593,-0.20035401,33.20217,0.019836426
0.03503981628049684,0.031042879062189218,-0.010924961730040842,0.033051997,0.021985816,-0.0035719294,0.10218793,-0.021178024,0.9945397,0.99476516,0.0021755272,-0.102164775,0.0,-0.9997734,-0.021289473,0.8738836059570312,-0.22026655273437498,8.298302954101562,3.431994,-0.20472331,33.36678,0.019836426
0.032508422708902016,0.02904441045303541,-0.016387442595061263,0.033051997,0.021985816,-0.0035719294,0.10218793,-0.021178024,0.9945397,0.99476516,0.0021755272,-0.102164775,0.0,-0.9997734,-0.021289473,0.814028564453125,-0.18914193115234373,8.231265307617187,3.4480917,-0.20472331,33.529556,0.01977539
0.036505359927209644,0.026513016881440577,-0.015588055151399738,0.033051997,0.021985816,-0.0035719294,0.10218793,-0.021178024,0.9945397,0.99476516,0.0021755272,-0.102164775,0.0,-0.9997734,-0.021289473,0.7948749511718749,-0.19393033447265623,8.2360537109375,3.4638593,-0.20472331,33.69293,0.019836426
0.031842266505850744,0.0287779479718149,-0.01505513018895872,0.033051997,0.021985816,-0.0035719294,0.10218793,-0.021178024,0.9945397,0.99476516,0.0021755272,-0.102164775,0.0,-0.9997734,-0.021289473,0.8116343627929687,-0.1484405029296875,8.257601525878906,3.4799345,-0.20472331,33.856476,0.019805908
0.036638591167819895,0.028644716731204646,-0.017186830038722786,0.033051997,0.021985816,-0.0035719294,0.10218793,-0.021178024,0.9945397,0.99476516,0.0021755272,-0.102164775,0.0,-0.9997734,-0.021289473,0.8451531860351562,-0.21308394775390624,8.2743609375,3.4966736,-0.20894364,34.020355,0.019805908
0.032375191468291764,0.028644716731204646,-0.015588055151399738,0.033051997,0.021985816,-0.0035719294,0.10218793,-0.021178024,0.9945397,0.99476516,0.0021755272,-0.102164775,0.0,-0.9997734,-0.021289473,0.8451531860351562,-0.17956512451171874,8.319850769042969,3.5134127,-0.20894364,34.18514,0.019805908
0.0302434916185277,0.032241960227681506,-0.014522205226517705,0.033051997,0.021985816,-0.0035719294,0.10218793,-0.021178024,0.9945397,0.99476516,0.0021755272,-0.102164775,0.0,-0.9997734,-0.021289473,0.842758984375,-0.16998831787109375,8.329427575683594,3.530053,-0.20894364,34.3496,0.019744873
0.029310872934255914,0.03011026037791744,-0.015454823910789483,0.033051997,0.021985816,-0.0035719294,0.10218793,-0.021178024,0.9945397,0.99476516,0.0021755272,-0.102164775,0.0,-0.9997734,-0.021289473,0.8762778076171874,-0.16280571289062498,8.219294299316406,3.5474617,-0.20894364,34.512894,0.019866943
0.027845329287543123,0.0302434916185277,-0.015854517632620246,0.033051997,0.021985816,-0.0035719294,0.10218793,-0.021178024,0.9945397,0.99476516,0.0021755272,-0.102164775,0.0,-0.9997734,-0.021289473,0.8834604125976562,-0.21068974609375,8.24802471923828,3.5649326,-0.2131101,34.676003,0.01977539
0.03437366007744557,0.032241960227681506,-0.017986217482384312,0.033051997,0.021985816,-0.0035719294,0.10218793,-0.021178024,0.9945397,0.99476516,0.0021755272,-0.102164775,0.0,-0.9997734,-0.021289473,0.8379705810546875,-0.15562310791015624,8.329427575683594,3.5820408,-0.2131101,34.846058,0.02041626
0.03397396635561481,0.02691271060327134,-0.01185758041431262,0.033051997,0.021985816,-0.0035719294,0.10218793,-0.021178024,0.9945397,0.99476516,0.0021755272,-0.102164775,0.0,-0.9997734,-0.021289473,0.8164227661132812,-0.15322890625,8.233659509277343,3.5982606,-0.2131101,35.009636,0.019866943
0.03464012255866608,0.030909647821578966,-0.017986217482384312,0.033051997,0.021985816,-0.0035719294,0.10218793,-0.021178024,0.9945397,0.99476516,0.0021755272,-0.102164775,0.0,-0.9997734,-0.021289473,0.8954314208984374,-0.21068974609375,8.336610180664062,3.6159954,-0.21728301,35.17475,0.019805908
0.03144257278401998,0.0305099540997482,-0.017186830038722786,0.033051997,0.021985816,-0.0035719294,0.10218793,-0.021178024,0.9945397,0.99476516,0.0021755272,-0.102164775,0.0,-0.9997734,-0.021289473,0.86191259765625,-0.18435352783203124,8.257601525878906,3.6330926,-0.21728301,35.338554,0.019836426
0.03490658503988659,0.032508422708902016,-0.015188361429568975,0.033051997,0.021985816,-0.0035719294,0.10218793,-0.021178024,0.9945397,0.99476516,0.0021755272,-0.102164775,0.0,-0.9997734,-0.021289473,0.8714894042968749,-0.1771709228515625,8.257601525878906,3.6503267,-0.21728301,35.50185,0.01977539
0.031042879062189218,0.029177641693645662,-0.015588055151399738,0.033051997,0.021985816,-0.0035719294,0.10218793,-0.021178024,0.9945397,0.99476516,0.0021755272,-0.102164775,0.0,-0.9997734,-0.021289473,0.86191259765625,-0.16998831787109375,8.310273962402343,3.6673977,-0.21728301,35.666443,0.019805908
0.0305099540997482,0.02971056665608668,-0.016254211354451008,0.033051997,0.021985816,-0.0035719294,0.10218793,-0.021178024,0.9945397,0.99476516,0.0021755272,-0.102164775,0.0,-0.9997734,-0.021289473,0.8355763793945312,-0.16280571289062498,8.37012900390625,3.6840236,-0.21728301,35.83299,0.019897461
0.03170903526524049,0.028111791768763626,-0.0127901990985844,0.033051997,0.021985816,-0.0035719294,0.10218793,-0.021178024,0.9945397,0.99476516,0.0021755272,-0.102164775,0.0,-0.9997734,-0.021289473,0.8954314208984374,-0.16280571289062498,8.312668164062499,3.7017858,-0.21728301,35.997883,0.019836426
0.03144257278401998,0.029310872934255914,-0.015987748873230498,0.033051997,0.021985816,-0.0035719294,0.10218793,-0.021178024,0.9945397,0.99476516,0.0021755272,-0.102164775,0.0,-0.9997734,-0.021289473,0.9026140258789062,-0.21068974609375,8.257601525878906,3.719718,-0.22146878,36.161938,0.019866943
0.03477335379927634,0.027978560528153375,-0.016520673835671518,0.033051997,0.021985816,-0.0035719294,0.10218793,-0.021178024,0.9945397,0.99476516,0.0021755272,-0.102164775,0.0,-0.9997734,-0.021289473,0.8188169677734375,-0.21068974609375,8.252813122558594,3.7359853,-0.22565454,36.325897,0.019866943
0.03077641658096871,0.028644716731204646,-0.016653905076281773,0.033051997,0.021985816,-0.0035719294,0.10218793,-0.021178024,0.9945397,0.99476516,0.0021755272,-0.102164775,0.0,-0.9997734,-0.021289473,0.8595183959960937,-0.2154781494140625,8.252813122558594,3.753035,-0.22992887,36.489605,0.019836426
0.03130934154340973,0.029177641693645662,-0.016520673835671518,0.033051997,0.021985816,-0.0035719294,0.10218793,-0.021178024,0.9945397,0.99476516,0.0021755272,-0.102164775,0.0,-0.9997734,-0.021289473,0.8188169677734375,-0.16998831787109375,8.322244970703125,3.7693024,-0.22992887,36.65494,0.019866943
0.03290811643073278,0.031575804024630234,-0.015454823910789483,0.033051997,0.021985816,-0.0035719294,0.10218793,-0.021178024,0.9945397,0.99476516,0.0021755272,-0.102164775,0.0,-0.9997734,-0.021289473,0.7924807495117187,-0.201112939453125,8.307879760742187,3.7850223,-0.23391823,36.81974,0.019836426
0.032508422708902016,0.03064318534035846,-0.015854517632620246,0.033051997,0.021985816,-0.0035719294,0.10218793,-0.021178024,0.9945397,0.99476516,0.0021755272,-0.102164775,0.0,-0.9997734,-0.021289473,0.8164227661132812,-0.15322890625,8.267178332519531,3.801267,-0.23391823,36.984238,0.019897461
0.03144257278401998,0.028378254249984136,-0.014122511504686942,0.033051997,0.021985816,-0.0035719294,0.10218793,-0.021178024,0.9945397,0.99476516,0.0021755272,-0.102164775,0.0,-0.9997734,-0.021289473,0.8212111694335937,-0.062249243164062495,8.238447912597655,3.817632,-0.23391823,37.148415,0.019927979
0.03543951000232761,0.028111791768763626,-0.012390505376753637,0.033051997,0.021985816,-0.0035719294,0.10218793,-0.021178024,0.9945397,0.99476516,0.0021755272,-0.102164775,0.0,-0.9997734,-0.021289473,0.8283937744140625,-0.1580173095703125,8.267178332519531,3.8340642,-0.23391823,37.312405,0.019836426
0.03583920372415837,0.030909647821578966,-0.013589586542245924,0.033051997,0.021985816,-0.0035719294,0.10218793,-0.021178024,0.9945397,0.99476516,0.0021755272,-0.102164775,0.0,-0.9997734,-0.021289473,0.8714894042968749,-0.19153613281249998,8.279149340820313,3.8518834,-0.23391823,37.481686,0.020446777
0.03144257278401998,0.028111791768763626,-0.015854517632620246,0.033051997,0.021985816,-0.0035719294,0.10218793,-0.021178024,0.9945397,0.99476516,0.0021755272,-0.102164775,0.0,-0.9997734,-0.021289473,0.8930372192382812,-0.143652099609375,8.231265307617187,3.8696525,-0.23391823,37.645466,0.019897461
0.032508422708902016,0.0302434916185277,-0.0191852986478766,0.033051997,0.021985816,-0.0035719294,0.10218793,-0.021178024,0.9945397,0.99476516,0.0021755272,-0.102164775,0.0,-0.9997734,-0.021289473,0.8499415893554687,-0.13646949462890623,8.283937744140625,3.8865383,-0.23391823,37.810043,0.019866943
0.03037672285913795,0.032108728987071254,-0.01505513018895872,0.033051997,0.021985816,-0.0035719294,0.10218793,-0.021178024,0.9945397,0.99476516,0.0021755272,-0.102164775,0.0,-0.9997734,-0.021289473,0.8690952026367187,-0.22266075439453123,8.200140686035155,3.9038575,-0.23835541,37.973457,0.019927979
0.03450689131805583,0.029444104174866172,-0.013856049023466432,0.033051997,0.021985816,-0.0035719294,0.10218793,-0.021178024,0.9945397,0.99476516,0.0021755272,-0.102164775,0.0,-0.9997734,-0.021289473,0.8882488159179687,-0.1197100830078125,8.219294299316406,3.9215314,-0.23835541,38.137,0.019897461
0.0334410413931738,0.03064318534035846,-0.018252679963604822,0.033051997,0.021985816,-0.0035719294,0.10218793,-0.021178024,0.9945397,0.99476516,0.0021755272,-0.102164775,0.0,-0.9997734,-0.021289473,0.7972691528320313,-0.16998831787109375,8.298302954101562,3.9373465,-0.23835541,38.30161,0.019836426
0.03503981628049684,0.029577335415476424,-0.015188361429568975,0.033051997,0.021985816,-0.0035719294,0.10218793,-0.021178024,0.9945397,0.99476516,0.0021755272,-0.102164775,0.0,-0.9997734,-0.021289473,0.8475473876953125,-0.0909796630859375,8.281543542480469,3.9541328,-0.23835541,38.465633,0.019805908
0.036105666205378875,0.028245023009373885,-0.015454823910789483,0.033051997,0.021985816,-0.0035719294,0.10218793,-0.021178024,0.9945397,0.99476516,0.0021755272,-0.102164775,0.0,-0.9997734,-0.021289473,0.8164227661132812,-0.16519991455078123,8.32463917236328,3.9703276,-0.23835541,38.630764,0.019836426
0.03490658503988659,0.031842266505850744,-0.01532159267017923,0.033051997,0.021985816,-0.0035719294,0.10218793,-0.021178024,0.9945397,0.99476516,0.0021755272,-0.102164775,0.0,-0.9997734,-0.021289473,0.8667010009765624,-0.1580173095703125,8.231265307617187,3.9875991,-0.23835541,38.794796,0.019927979
0.033307810152563545,0.03144257278401998,-0.013589586542245924,0.033051997,0.021985816,-0.0035719294,0.10218793,-0.021178024,0.9945397,0.99476516,0.0021755272,-0.102164775,0.0,-0.9997734,-0.021289473,0.8858546142578124,-0.17956512451171874,8.346186987304687,4.0051985,-0.23835541,38.96061,0.019866943
0.03011026037791744,0.029310872934255914,-0.01532159267017923,0.033051997,0.021985816,-0.0035719294,0.10218793,-0.021178024,0.9945397,0.99476516,0.0021755272,-0.102164775,0.0,-0.9997734,-0.021289473,0.8978256225585937,-0.201112939453125,8.288726147460936,4.0229807,-0.24233864,39.124775,0.019805908
0.02971056665608668,0.02851148549059439,-0.015854517632620246,0.033051997,0.021985816,-0.0035719294,0.10218793,-0.021178024,0.9945397,0.99476516,0.0021755272,-0.102164775,0.0,-0.9997734,-0.021289473,0.86191259765625,-0.13168109130859373,8.257601525878906,4.0401044,-0.24233864,39.28883,0.019866943
0.0305099540997482,0.02904441045303541,-0.01705359879811253,0.033051997,0.021985816,-0.0035719294,0.10218793,-0.021178024,0.9945397,0.99476516,0.0021755272,-0.102164775,0.0,-0.9997734,-0.021289473,0.82360537109375,-0.16998831787109375,8.257601525878906,4.0564165,-0.24233864,39.452377,0.019805908
0.0302434916185277,0.029310872934255914,-0.012257274136143382,0.033051997,0.021985816,-0.0035719294,0.10218793,-0.021178024,0.9945397,0.99476516,0.0021755272,-0.102164775,0.0,-0.9997734,-0.021289473,0.9074024291992187,-0.2154781494140625,8.283937744140625,4.074582,-0.24665241,39.618217,0.020019531
0.03410719759622506,0.0305099540997482,-0.015188361429568975,0.033051997,0.021985816,-0.0035719294,0.10218793,-0.021178024,0.9945397,0.99476516,0.0021755272,-0.102164775,0.0,-0.9997734,-0.021289473,0.8355763793945312,-0.16998831787109375,8.271966735839843,4.091208,-0.24665241,39.78281,0.019897461
0.029310872934255914,0.028644716731204646,-0.015454823910789483,0.033051997,0.021985816,-0.0035719294,0.10218793,-0.021178024,0.9945397,0.99476516,0.0021755272,-0.102164775,0.0,-0.9997734,-0.021289473,0.8571241943359375,-0.16759411621093748,8.33182177734375,4.108655,-0.24665241,39.952408,0.020355225
0.03077641658096871,0.02997702913730719,-0.015454823910789483,0.033051997,0.021985816,-0.0035719294,0.10218793,-0.021178024,0.9945397,0.99476516,0.0021755272,-0.102164775,0.0,-0.9997734,-0.021289473,0.8044517578125,-0.143652099609375,8.243236315917969,4.124637,-0.24665241,40.116177,0.019866943
0.028644716731204646,0.030909647821578966,-0.01705359879811253,0.033051997,0.021985816,-0.0035719294,0.10218793,-0.021178024,0.9945397,0.99476516,0.0021755272,-0.102164775,0.0,-0.9997734,-0.021289473,0.8283937744140625,-0.15083470458984374,8.279149340820313,4.141044,-0.24665241,40.28015,0.019805908
0.0334410413931738,0.030909647821578966,-0.017852986241774057,0.033051997,0.021985816,-0.0035719294,0.10218793,-0.021178024,0.9945397,0.99476516,0.0021755272,-0.102164775,0.0,-0.9997734,-0.021289473,0.8667010009765624,-0.17238251953125,8.259995727539062,4.1583157,-0.24665241,40.444756,0.019927979
0.03357427263378405,0.03064318534035846,-0.016653905076281773,0.033051997,0.021985816,-0.0035719294,0.10218793,-0.021178024,0.9945397,0.99476516,0.0021755272,-0.102164775,0.0,-0.9997734,-0.021289473,0.8595183959960937,-0.14125789794921875,8.29351455078125,4.175444,-0.24665241,40.610027,0.019927979
0.032108728987071254,0.02997702913730719,-0.01505513018895872,0.033051997,0.021985816,-0.0035719294,0.10218793,-0.021178024,0.9945397,0.99476516,0.0021755272,-0.102164775,0.0,-0.9997734,-0.021289473,0.8068459594726562,-0.19871873779296872,8.307879760742187,4.191449,-0.24665241,40.774826,0.019836426
0.03384073511500456,0.030909647821578966,-0.016254211354451008,0.033051997,0.021985816,-0.0035719294,0.10218793,-0.021178024,0.9945397,0.99476516,0.0021755272,-0.102164775,0.0,-0.9997734,-0.021289473,0.842758984375,-0.13407529296874998,8.33182177734375,4.208115,-0.24665241,40.93959,0.01977539
0.031975497746460996,0.029577335415476424,-0.013189892820415163,0.033051997,0.021985816,-0.0035719294,0.10218793,-0.021178024,0.9945397,0.99476516,0.0021755272,-0.102164775,0.0,-0.9997734,-0.021289473,0.852335791015625,-0.18914193115234373,8.281543542480469,4.2249703,-0.24665241,41.103363,0.01977539
0.03290811643073278,0.0305099540997482,-0.01572128639200999,0.033051997,0.021985816,-0.0035719294,0.10218793,-0.021178024,0.9945397,0.99476516,0.0021755272,-0.102164775,0.0,-0.9997734,-0.021289473,0.86191259765625,-0.16280571289062498,8.228871105957031,4.242094,-0.24665241,41.266846,0.019866943
0.03170903526524049,0.031042879062189218,-0.018385911204215073,0.033051997,0.021985816,-0.0035719294,0.10218793,-0.021178024,0.9945397,0.99476516,0.0021755272,-0.102164775,0.0,-0.9997734,-0.021289473,0.8738836059570312,-0.16759411621093748,8.276755139160155,4.2593756,-0.24665241,41.430523,0.01977539
0.03357427263378405,0.03077641658096871,-0.014921898948348467,0.033051997,0.021985816,-0.0035719294,0.10218793,-0.021178024,0.9945397,0.99476516,0.0021755272,-0.102164775,0.0,-0.9997734,-0.021289473,0.8355763793945312,-0.19153613281249998,8.312668164062499,4.2759504,-0.24665241,41.595417,0.019836426
0.027845329287543123,0.032241960227681506,-0.01985145485092787,0.033051997,0.021985816,-0.0035719294,0.10218793,-0.021178024,0.9945397,0.99476516,0.0021755272,-0.102164775,0.0,-0.9997734,-0.021289473,0.8355763793945312,-0.22026655273437498,8.303091357421874,4.2925,-0.25101498,41.75987,0.019805908
0.03130934154340973,0.028911179212425153,-0.016787136316892024,0.033051997,0.021985816,-0.0035719294,0.10218793,-0.021178024,0.9945397,0.99476516,0.0021755272,-0.102164775,0.0,-0.9997734,-0.021289473,0.842758984375,-0.1867477294921875,8.379705810546875,4.309243,-0.25101498,41.92635,0.019866943
0.03450689131805583,0.02997702913730719,-0.016387442595061263,0.033051997,0.021985816,-0.0035719294,0.10218793,-0.021178024,0.9945397,0.99476516,0.0021755272,-0.102164775,0.0,-0.9997734,-0.021289473,0.7996633544921875,-0.16041151123046873,8.2743609375,4.32513,-0.25101498,42.090736,0.019866943
0.03144257278401998,0.03064318534035846,-0.015854517632620246,0.033051997,0.021985816,-0.0035719294,0.10218793,-0.021178024,0.9945397,0.99476516,0.0021755272,-0.102164775,0.0,-0.9997734,-0.021289473,0.8858546142578124,-0.12210428466796874,8.238447912597655,4.342675,-0.25101498,42.253906,0.019805908
0.03384073511500456,0.028111791768763626,-0.01505513018895872,0.033051997,0.021985816,-0.0035719294,0.10218793,-0.021178024,0.9945397,0.99476516,0.0021755272,-0.102164775,0.0,-0.9997734,-0.021289473,0.842758984375,-0.181959326171875,8.250418920898436,4.359341,-0.25101498,42.41706,0.01977539
0.031975497746460996,0.029444104174866172,-0.014522205226517705,0.033051997,0.021985816,-0.0035719294,0.10218793,-0.021178024,0.9945397,0.99476516,0.0021755272,-0.102164775,0.0,-0.9997734,-0.021289473,0.8882488159179687,-0.12689268798828124,8.231265307617187,4.3774757,-0.25101498,42.585114,0.02041626
0.03290811643073278,0.03077641658096871,-0.013989280264076687,0.033051997,0.021985816,-0.0035719294,0.10218793,-0.021178024,0.9945397,0.99476516,0.0021755272,-0.102164775,0.0,-0.9997734,-0.021289473,0.8307879760742187,-0.22744915771484372,8.288726147460936,4.3939304,-0.2555198,42.74928,0.019805908
0.03490658503988659,0.0287779479718149,-0.016387442595061263,0.033051997,0.021985816,-0.0035719294,0.10218793,-0.021178024,0.9945397,0.99476516,0.0021755272,-0.102164775,0.0,-0.9997734,-0.021289473,0.842758984375,-0.1771709228515625,8.226476904296874,4.410622,-0.2555198,42.912212,0.019805908
0.032774885190122525,0.029577335415476424,-0.014788667707738212,0.033051997,0.021985816,-0.0035719294,0.10218793,-0.021178024,0.9945397,0.99476516,0.0021755272,-0.102164775,0.0,-0.9997734,-0.021289473,0.8451531860351562,-0.17238251953125,8.295908752441406,4.427361,-0.2555198,43.07652,0.019805908
0.03290811643073278,0.03011026037791744,-0.014921898948348467,0.033051997,0.021985816,-0.0035719294,0.10218793,-0.021178024,0.9945397,0.99476516,0.0021755272,-0.102164775,0.0,-0.9997734,-0.021289473,0.8738836059570312,-0.15562310791015624,8.312668164062499,4.444722,-0.2555198,43.241665,0.019866943
0.03144257278401998,0.02904441045303541,-0.016520673835671518,0.033051997,0.021985816,-0.0035719294,0.10218793,-0.021178024,0.9945397,0.99476516,0.0021755272,-0.102164775,0.0,-0.9997734,-0.021289473,0.8307879760742187,-0.17477672119140625,8.243236315917969,4.461202,-0.2555198,43.40518,0.019836426
0.03477335379927634,0.02997702913730719,-0.0191852986478766,0.033051997,0.021985816,-0.0035719294,0.10218793,-0.021178024,0.9945397,0.99476516,0.0021755272,-0.102164775,0.0,-0.9997734,-0.021289473,0.8499415893554687,-0.13646949462890623,8.252813122558594,4.478088,-0.2555198,43.56914,0.019866943
0.031176110302799476,0.03144257278401998,-0.016653905076281773,0.033051997,0.021985816,-0.0035719294,0.10218793,-0.021178024,0.9945397,0.99476516,0.0021755272,-0.102164775,0.0,-0.9997734,-0.021289473,0.9121908325195311,-0.21308394775390624,8.221688500976562,4.4962106,-0.25975314,43.732483,0.019866943
0.03130934154340973,0.029577335415476424,-0.015987748873230498,0.033051997,0.021985816,-0.0035719294,0.10218793,-0.021178024,0.9945397,0.99476516,0.0021755272,-0.102164775,0.0,-0.9997734,-0.021289473,0.8116343627929687,-0.21308394775390624,8.29351455078125,4.512261,-0.26396695,43.896492,0.01977539
0.031575804024630234,0.028378254249984136,-0.014122511504686942,0.033051997,0.021985816,-0.0035719294,0.10218793,-0.021178024,0.9945397,0.99476516,0.0021755272,-0.102164775,0.0,-0.9997734,-0.021289473,0.8212111694335937,-0.1867477294921875,8.204929089355469,4.528526,-0.26396695,44.059,0.019805908
0.033041347671343035,0.03064318534035846,-0.014921898948348467,0.033051997,0.021985816,-0.0035719294,0.10218793,-0.021178024,0.9945397,0.99476516,0.0021755272,-0.102164775,0.0,-0.9997734,-0.021289473,0.86191259765625,-0.19871873779296872,8.231265307617187,4.5456233,-0.26396695,44.22228,0.019836426
0.031975497746460996,0.0287779479718149,-0.016254211354451008,0.033051997,0.021985816,-0.0035719294,0.10218793,-0.021178024,0.9945397,0.99476516,0.0021755272,-0.102164775,0.0,-0.9997734,-0.021289473,0.9002198242187499,-0.1580173095703125,8.298302954101562,4.563453,-0.26396695,44.386635,0.019805908
0.0302434916185277,0.032108728987071254,-0.02105053601642016,0.033051997,0.021985816,-0.0035719294,0.10218793,-0.021178024,0.9945397,0.99476516,0.0021755272,-0.102164775,0.0,-0.9997734,-0.021289473,0.8044517578125,-0.22505495605468748,8.276755139160155,4.5794106,-0.26843125,44.550816,0.019836426
0.032241960227681506,0.029177641693645662,-0.015854517632620246,0.033051997,0.021985816,-0.0035719294,0.10218793,-0.021178024,0.9945397,0.99476516,0.0021755272,-0.102164775,0.0,-0.9997734,-0.021289473,0.8355763793945312,-0.21308394775390624,8.303091357421874,4.59596,-0.27265155,44.715267,0.019805908
0.031575804024630234,0.027978560528153375,-0.013323124061025418,0.033051997,0.021985816,-0.0035719294,0.10218793,-0.021178024,0.9945397,0.99476516,0.0021755272,-0.102164775,0.0,-0.9997734,-0.021289473,0.8068459594726562,-0.20350714111328125,8.238447912597655,4.6119895,-0.27669463,44.87894,0.019866943
0.03290811643073278,0.028644716731204646,-0.013056661579804908,0.033051997,0.021985816,-0.0035719294,0.10218793,-0.021178024,0.9945397,0.99476516,0.0021755272,-0.102164775,0.0,-0.9997734,-0.021289473,0.7876923461914062,-0.16519991455078123,8.228871105957031,4.6275907,-0.27669463,45.04192,0.019805908
0.032375191468291764,0.0305099540997482,-0.019052067407266345,0.033051997,0.021985816,-0.0035719294,0.10218793,-0.021178024,0.9945397,0.99476516,0.0021755272,-0.102164775,0.0,-0.9997734,-0.021289473,0.82360537109375,-0.16041151123046873,8.276755139160155,4.64433,-0.27669463,45.210144,0.020324707
0.03357427263378405,0.03144257278401998,-0.01372281778285618,0.033051997,0.021985816,-0.0035719294,0.10218793,-0.021178024,0.9945397,0.99476516,0.0021755272,-0.102164775,0.0,-0.9997734,-0.021289473,0.9074024291992187,-0.143652099609375,8.204929089355469,4.6624126,-0.27669463,45.373653,0.019927979
0.032241960227681506,0.027978560528153375,-0.012923430339194655,0.033051997,0.021985816,-0.0035719294,0.10218793,-0.021178024,0.9945397,0.99476516,0.0021755272,-0.102164775,0.0,-0.9997734,-0.021289473,0.8212111694335937,-0.21787235107421873,8.283937744140625,4.6787276,-0.2810231,45.53823,0.019866943
0.03290811643073278,0.02997702913730719,-0.014655436467127957,0.033051997,0.021985816,-0.0035719294,0.10218793,-0.021178024,0.9945397,0.99476516,0.0021755272,-0.102164775,0.0,-0.9997734,-0.021289473,0.8595183959960937,-0.16998831787109375,8.250418920898436,4.6957774,-0.2810231,45.70189,0.019836426
0.031842266505850744,0.0305099540997482,-0.016120980113840753,0.033051997,0.021985816,-0.0035719294,0.10218793,-0.021178024,0.9945397,0.99476516,0.0021755272,-0.102164775,0.0,-0.9997734,-0.021289473,0.8499415893554687,-0.143652099609375,8.281543542480469,4.7126374,-0.2810231,45.866165,0.019836426
0.036771822408430146,0.03064318534035846,-0.015188361429568975,0.033051997,0.021985816,-0.0035719294,0.10218793,-0.021178024,0.9945397,0.99476516,0.0021755272,-0.102164775,0.0,-0.9997734,-0.021289473,0.842758984375,-0.19393033447265623,8.207323291015625,4.7293806,-0.2810231,46.02922,0.019866943
0.03357427263378405,0.02997702913730719,-0.0127901990985844,0.033051997,0.021985816,-0.0035719294,0.10218793,-0.021178024,0.9945397,0.99476516,0.0021755272,-0.102164775,0.0,-0.9997734,-0.021289473,0.9074024291992187,-0.1388636962890625,8.257601525878906,4.7473803,-0.2810231,46.193024,0.019836426
0.033307810152563545,0.029177641693645662,-0.015188361429568975,0.033051997,0.021985816,-0.0035719294,0.10218793,-0.021178024,0.9945397,0.99476516,0.0021755272,-0.102164775,0.0,-0.9997734,-0.021289473,0.8595183959960937,-0.143652099609375,8.307879760742187,4.7643776,-0.2810231,46.357315,0.01977539
0.03264165394951227,0.03011026037791744,-0.01438897398590745,0.033051997,0.021985816,-0.0035719294,0.10218793,-0.021178024,0.9945397,0.99476516,0.0021755272,-0.102164775,0.0,-0.9997734,-0.021289473,0.8690952026367187,-0.17477672119140625,8.295908752441406,4.781564,-0.2810231,46.52137,0.01977539
0.032108728987071254,0.029843797896696934,-0.013989280264076687,0.033051997,0.021985816,-0.0035719294,0.10218793,-0.021178024,0.9945397,0.99476516,0.0021755272,-0.102164775,0.0,-0.9997734,-0.021289473,0.852335791015625,-0.1197100830078125,8.245630517578125,4.7984977,-0.2810231,46.685184,0.019866943
0.03424042883683532,0.02904441045303541,-0.014788667707738212,0.033051997,0.021985816,-0.0035719294,0.10218793,-0.021178024,0.9945397,0.99476516,0.0021755272,-0.102164775,0.0,-0.9997734,-0.021289473,0.9002198242187499,-0.201112939453125,8.267178332519531,4.8162723,-0.28499404,46.84842,0.019744873
0.03384073511500456,0.03064318534035846,-0.015987748873230498,0.033051997,0.021985816,-0.0035719294,0.10218793,-0.021178024,0.9945397,0.99476516,0.0021755272,-0.102164775,0.0,-0.9997734,-0.021289473,0.7972691528320313,-0.17238251953125,8.305485559082031,4.8320384,-0.28499404,47.012665,0.01977539
0.036505359927209644,0.02997702913730719,-0.014122511504686942,0.033051997,0.021985816,-0.0035719294,0.10218793,-0.021178024,0.9945397,0.99476516,0.0021755272,-0.102164775,0.0,-0.9997734,-0.021289473,0.8188169677734375,-0.1197100830078125,8.245630517578125,4.848231,-0.28499404,47.175724,0.01977539
0.03290811643073278,0.03077641658096871,-0.013989280264076687,0.033051997,0.021985816,-0.0035719294,0.10218793,-0.021178024,0.9945397,0.99476516,0.0021755272,-0.102164775,0.0,-0.9997734,-0.021289473,0.7685387329101562,-0.17477672119140625,8.1594392578125,4.863429,-0.28499404,47.337082,0.01977539
0.03064318534035846,0.03384073511500456,-0.014788667707738212,0.033051997,0.021985816,-0.0035719294,0.10218793,-0.021178024,0.9945397,0.99476516,0.0021755272,-0.102164775,0.0,-0.9997734,-0.021289473,0.842758984375,-0.16998831787109375,8.279149340820313,4.880095,-0.28499404,47.500805,0.01977539
0.03543951000232761,0.028911179212425153,-0.01438897398590745,0.033051997,0.021985816,-0.0035719294,0.10218793,-0.021178024,0.9945397,0.99476516,0.0021755272,-0.102164775,0.0,-0.9997734,-0.021289473,0.7972691528320313,-0.21308394775390624,8.25520732421875,4.8958855,-0.28921434,47.664307,0.019805908
0.032108728987071254,0.028111791768763626,-0.013856049023466432,0.033051997,0.021985816,-0.0035719294,0.10218793,-0.021178024,0.9945397,0.99476516,0.0021755272,-0.102164775,0.0,-0.9997734,-0.021289473,0.8882488159179687,-0.19632453613281248,8.319850769042969,4.913939,-0.28921434,47.833405,0.020324707
0.030909647821578966,0.02904441045303541,-0.013856049023466432,0.033051997,0.021985816,-0.0035719294,0.10218793,-0.021178024,0.9945397,0.99476516,0.0021755272,-0.102164775,0.0,-0.9997734,-0.021289473,0.7637503295898437,-0.2154781494140625,8.322244970703125,4.9290423,-0.2934755,47.997982,0.01977539
0.035173047521107094,0.029444104174866172,-0.017453292519943295,0.033051997,0.021985816,-0.0035719294,0.10218793,-0.021178024,0.9945397,0.99476516,0.0021755272,-0.102164775,0.0,-0.9997734,-0.021289473,0.8283937744140625,-0.22266075439453123,8.307879760742187,4.9455,-0.2978991,48.163033,0.019866943
0.031842266505850744,0.02997702913730719,-0.016387442595061263,0.033051997,0.021985816,-0.0035719294,0.10218793,-0.021178024,0.9945397,0.99476516,0.0021755272,-0.102164775,0.0,-0.9997734,-0.021289473,0.8188169677734375,-0.15083470458984374,8.29351455078125,4.9617424,-0.2978991,48.327545,0.019836426
0.032241960227681506,0.031176110302799476,-0.014788667707738212,0.033051997,0.021985816,-0.0035719294,0.10218793,-0.021178024,0.9945397,0.99476516,0.0021755272,-0.102164775,0.0,-0.9997734,-0.021289473,0.8475473876953125,-0.16759411621093748,8.231265307617187,4.978529,-0.2978991,48.490574,0.019805908
0.03290811643073278,0.031042879062189218,-0.017586523760553547,0.033051997,0.021985816,-0.0035719294,0.10218793,-0.021178024,0.9945397,0.99476516,0.0021755272,-0.102164775,0.0,-0.9997734,-0.021289473,0.8690952026367187,-0.181959326171875,8.279149340820313,4.9957685,-0.2978991,48.654804,0.019836426
0.032108728987071254,0.027712098046932865,-0.012523736617363892,0.033051997,0.021985816,-0.0035719294,0.10218793,-0.021178024,0.9945397,0.99476516,0.0021755272,-0.102164775,0.0,-0.9997734,-0.021289473,0.8020575561523438,-0.14125789794921875,8.346186987304687,5.011654,-0.2978991,48.820107,0.019805908
0.03264165394951227,0.02904441045303541,-0.01212404289553313,0.033051997,0.021985816,-0.0035719294,0.10218793,-0.021178024,0.9945397,0.99476516,0.0021755272,-0.102164775,0.0,-0.9997734,-0.021289473,0.8595183959960937,-0.10295067138671875,8.367734802246094,5.028756,-0.2978991,48.986603,0.019897461
0.03144257278401998,0.03290811643073278,-0.01692036755750228,0.033051997,0.021985816,-0.0035719294,0.10218793,-0.021178024,0.9945397,0.99476516,0.0021755272,-0.102164775,0.0,-0.9997734,-0.021289473,0.8786720092773437,-0.20350714111328125,8.267178332519531,5.0462127,-0.30194217,49.150845,0.019866943
0.032241960227681506,0.03170903526524049,-0.017719755001163805,0.033051997,0.021985816,-0.0035719294,0.10218793,-0.021178024,0.9945397,0.99476516,0.0021755272,-0.102164775,0.0,-0.9997734,-0.021289473,0.8212111694335937,-0.19153613281249998,8.252813122558594,5.0625277,-0.30194217,49.314804,0.019866943
0.032375191468291764,0.02717917308449185,-0.014522205226517705,0.033051997,0.021985816,-0.0035719294,0.10218793,-0.021178024,0.9945397,0.99476516,0.0021755272,-0.102164775,0.0,-0.9997734,-0.021289473,0.852335791015625,-0.21308394775390624,8.2743609375,5.079435,-0.306169,49.47894,0.019836426
0.03823736605514295,0.031842266505850744,-0.01851914244482533,0.033051997,0.021985816,-0.0035719294,0.10218793,-0.021178024,0.9945397,0.99476516,0.0021755272,-0.102164775,0.0,-0.9997734,-0.021289473,0.852335791015625,-0.19632453613281248,8.245630517578125,5.096394,-0.306169,49.643005,0.019897461
0.031575804024630234,0.028111791768763626,-0.013989280264076687,0.033051997,0.021985816,-0.0035719294,0.10218793,-0.021178024,0.9945397,0.99476516,0.0021755272,-0.102164775,0.0,-0.9997734,-0.021289473,0.8379705810546875,-0.1771709228515625,8.24802471923828,5.1130166,-0.306169,49.806618,0.019836426
0.03357427263378405,0.032108728987071254,-0.012523736617363892,0.033051997,0.021985816,-0.0035719294,0.10218793,-0.021178024,0.9945397,0.99476516,0.0021755272,-0.102164775,0.0,-0.9997734,-0.021289473,0.8499415893554687,-0.21068974609375,8.295908752441406,5.1298504,-0.3103419,49.970924,0.019805908
0.033307810152563545,0.029843797896696934,-0.01438897398590745,0.033051997,0.021985816,-0.0035719294,0.10218793,-0.021178024,0.9945397,0.99476516,0.0021755272,-0.102164775,0.0,-0.9997734,-0.021289473,0.8307879760742187,-0.20829554443359374,8.25520732421875,5.1463556,-0.3144801,50.13493,0.019866943
0.03144257278401998,0.031042879062189218,-0.015588055151399738,0.033051997,0.021985816,-0.0035719294,0.10218793,-0.021178024,0.9945397,0.99476516,0.0021755272,-0.102164775,0.0,-0.9997734,-0.021289473,0.8379705810546875,-0.18435352783203124,8.264784130859374,5.1634126,-0.3144801,50.30316,0.020355225
0.03410719759622506,0.02584686067838931,-0.01572128639200999,0.033051997,0.021985816,-0.0035719294,0.10218793,-0.021178024,0.9945397,0.99476516,0.0021755272,-0.102164775,0.0,-0.9997734,-0.021289473,0.8786720092773437,-0.201112939453125,8.264784130859374,5.1809225,-0.31848788,50.46786,0.019927979
0.03290811643073278,0.030909647821578966,-0.015854517632620246,0.033051997,0.021985816,-0.0035719294,0.10218793,-0.021178024,0.9945397,0.99476516,0.0021755272,-0.102164775,0.0,-0.9997734,-0.021289473,0.8283937744140625,-0.2059013427734375,8.25520732421875,5.197355,-0.32257223,50.631615,0.019836426
0.03410719759622506,0.03064318534035846,-0.014522205226517705,0.033051997,0.021985816,-0.0035719294,0.10218793,-0.021178024,0.9945397,0.99476516,0.0021755272,-0.102164775,0.0,-0.9997734,-0.021289473,0.8116343627929687,-0.1867477294921875,8.252813122558594,5.2134795,-0.32257223,50.795574,0.019866943
0.03703828488965066,0.0302434916185277,-0.015454823910789483,0.033051997,0.021985816,-0.0035719294,0.10218793,-0.021178024,0.9945397,0.99476516,0.0021755272,-0.102164775,0.0,-0.9997734,-0.021289473,0.8930372192382812,-0.15083470458984374,8.226476904296874,5.231194,-0.32257223,50.95876,0.019836426
0.03583920372415837,0.031842266505850744,-0.015188361429568975,0.033051997,0.021985816,-0.0035719294,0.10218793,-0.021178024,0.9945397,0.99476516,0.0021755272,-0.102164775,0.0,-0.9997734,-0.021289473,0.8714894042968749,-0.16519991455078123,8.267178332519531,5.2484546,-0.32257223,51.122498,0.019805908
0.03144257278401998,0.029310872934255914,-0.01532159267017923,0.033051997,0.021985816,-0.0035719294,0.10218793,-0.021178024,0.9945397,0.99476516,0.0021755272,-0.102164775,0.0,-0.9997734,-0.021289473,0.8307879760742187,-0.19153613281249998,8.240842114257813,5.2649345,-0.32257223,51.285965,0.019836426
0.033307810152563545,0.028911179212425153,-0.015588055151399738,0.033051997,0.021985816,-0.0035719294,0.10218793,-0.021178024,0.9945397,0.99476516,0.0021755272,-0.102164775,0.0,-0.9997734,-0.021289473,0.7996633544921875,-0.12689268798828124,8.322244970703125,5.2808948,-0.32257223,51.452065,0.019958496
0.032108728987071254,0.029444104174866172,-0.013989280264076687,0.033051997,0.021985816,-0.0035719294,0.10218793,-0.021178024,0.9945397,0.99476516,0.0021755272,-0.102164775,0.0,-0.9997734,-0.021289473,0.8044517578125,-0.16519991455078123,8.279149340820313,5.296926,-0.32257223,51.61705,0.019927979
0.031975497746460996,0.02997702913730719,-0.013589586542245924,0.033051997,0.021985816,-0.0035719294,0.10218793,-0.021178024,0.9945397,0.99476516,0.0021755272,-0.102164775,0.0,-0.9997734,-0.021289473,0.7948749511718749,-0.19632453613281248,8.252813122558594,5.3126936,-0.32257223,51.780758,0.019836426
0.0302434916185277,0.028378254249984136,-0.013056661579804908,0.033051997,0.021985816,-0.0035719294,0.10218793,-0.021178024,0.9945397,0.99476516,0.0021755272,-0.102164775,0.0,-0.9997734,-0.021289473,0.9026140258789062,-0.2154781494140625,8.305485559082031,5.3305984,-0.32684654,51.94551,0.019836426
0.0334410413931738,0.032241960227681506,-0.01692036755750228,0.033051997,0.021985816,-0.0035719294,0.10218793,-0.021178024,0.9945397,0.99476516,0.0021755272,-0.102164775,0.0,-0.9997734,-0.021289473,0.8379705810546875,-0.17477672119140625,8.281543542480469,5.347195,-0.32684654,52.109535,0.019805908
0.036105666205378875,0.02744563556571236,-0.017453292519943295,0.033051997,0.021985816,-0.0035719294,0.10218793,-0.021178024,0.9945397,0.99476516,0.0021755272,-0.102164775,0.0,-0.9997734,-0.021289473,0.9097966308593749,-0.14604630126953125,8.2743609375,5.3652143,-0.32684654,52.273415,0.019805908
0.032375191468291764,0.029177641693645662,-0.018119448722994567,0.033051997,0.021985816,-0.0035719294,0.10218793,-0.021178024,0.9945397,0.99476516,0.0021755272,-0.102164775,0.0,-0.9997734,-0.021289473,0.8954314208984374,-0.15562310791015624,8.17859287109375,5.3829765,-0.32684654,52.43565,0.019836426
0.035173047521107094,0.026646248122050836,-0.015188361429568975,0.033051997,0.021985816,-0.0035719294,0.10218793,-0.021178024,0.9945397,0.99476516,0.0021755272,-0.102164775,0.0,-0.9997734,-0.021289473,0.8882488159179687,-0.143652099609375,8.327033374023436,5.400542,-0.32684654,52.60032,0.01977539
0.0369050536490404,0.02624655440022007,-0.015854517632620246,0.033051997,0.021985816,-0.0035719294,0.10218793,-0.021178024,0.9945397,0.99476516,0.0021755272,-0.102164775,0.0,-0.9997734,-0.021289473,0.8595183959960937,-0.23702596435546874,8.183381274414062,5.4175653,-0.33154106,52.762398,0.019805908
0.03477335379927634,0.029444104174866172,-0.016787136316892024,0.033051997,0.021985816,-0.0035719294,0.10218793,-0.021178024,0.9945397,0.99476516,0.0021755272,-0.102164775,0.0,-0.9997734,-0.021289473,0.8403647827148437,-0.16041151123046873,8.21690009765625,5.4347224,-0.33154106,52.930157,0.02041626
0.037304747370871166,0.028245023009373885,-0.015188361429568975,0.033051997,0.021985816,-0.0035719294,0.10218793,-0.021178024,0.9945397,0.99476516,0.0021755272,-0.102164775,0.0,-0.9997734,-0.021289473,0.8571241943359375,-0.15562310791015624,8.240842114257813,5.451777,-0.33154106,53.094128,0.019897461
0.031042879062189218,0.02851148549059439,-0.014788667707738212,0.033051997,0.021985816,-0.0035719294,0.10218793,-0.021178024,0.9945397,0.99476516,0.0021755272,-0.102164775,0.0,-0.9997734,-0.021289473,0.8643067993164062,-0.14604630126953125,8.29351455078125,5.468869,-0.33154106,53.258137,0.01977539
0.03384073511500456,0.02971056665608668,-0.017852986241774057,0.033051997,0.021985816,-0.0035719294,0.10218793,-0.021178024,0.9945397,0.99476516,0.0021755272,-0.102164775,0.0,-0.9997734,-0.021289473,0.8379705810546875,-0.11252747802734374,8.269572534179687,5.4854403,-0.33154106,53.42167,0.01977539
0.032241960227681506,0.031042879062189218,-0.0127901990985844,0.033051997,0.021985816,-0.0035719294,0.10218793,-0.021178024,0.9945397,0.99476516,0.0021755272,-0.102164775,0.0,-0.9997734,-0.021289473,0.8499415893554687,-0.18435352783203124,8.307879760742187,5.502326,-0.33154106,53.58672,0.019866943
0.03170903526524049,0.03064318534035846,-0.015188361429568975,0.033051997,0.021985816,-0.0035719294,0.10218793,-0.021178024,0.9945397,0.99476516,0.0021755272,-0.102164775,0.0,-0.9997734,-0.021289473,0.8595183959960937,-0.21787235107421873,8.336610180664062,5.5193233,-0.33584958,53.75158,0.01977539
0.03490658503988659,0.03037672285913795,-0.017852986241774057,0.033051997,0.021985816,-0.0035719294,0.10218793,-0.021178024,0.9945397,0.99476516,0.0021755272,-0.102164775,0.0,-0.9997734,-0.021289473,0.8595183959960937,-0.181959326171875,8.233659509277343,5.5363207,-0.33584958,53.914402,0.01977539
0.03450689131805583,0.03170903526524049,-0.015987748873230498,0.033051997,0.021985816,-0.0035719294,0.10218793,-0.021178024,0.9945397,0.99476516,0.0021755272,-0.102164775,0.0,-0.9997734,-0.021289473,0.852335791015625,-0.19632453613281248,8.276755139160155,5.553202,-0.33584958,54.07833,0.019805908
0.0302434916185277,0.02904441045303541,-0.015987748873230498,0.033051997,0.021985816,-0.0035719294,0.10218793,-0.021178024,0.9945397,0.99476516,0.0021755272,-0.102164775,0.0,-0.9997734,-0.021289473,0.8714894042968749,-0.11013327636718749,8.348581188964843,5.5704627,-0.33584958,54.243683,0.019805908
0.031842266505850744,0.03170903526524049,-0.014921898948348467,0.033051997,0.021985816,-0.0035719294,0.10218793,-0.021178024,0.9945397,0.99476516,0.0021755272,-0.102164775,0.0,-0.9997734,-0.021289473,0.7757213378906249,-0.105344873046875,8.152256652832031,5.5858502,-0.33584958,54.405396,0.019836426
0.033041347671343035,0.03037672285913795,-0.014921898948348467,0.033051997,0.021985816,-0.0035719294,0.10218793,-0.021178024,0.9945397,0.99476516,0.0021755272,-0.102164775,0.0,-0.9997734,-0.021289473,0.8379705810546875,-0.2154781494140625,8.29351455078125,5.602498,-0.34013048,54.570164,0.019866943
0.030909647821578966,0.0305099540997482,-0.017719755001163805,0.033051997,0.021985816,-0.0035719294,0.10218793,-0.021178024,0.9945397,0.99476516,0.0021755272,-0.102164775,0.0,-0.9997734,-0.021289473,0.8667010009765624,-0.16998831787109375,8.245630517578125,5.6197433,-0.34013048,54.73423,0.019897461
0.03264165394951227,0.032774885190122525,-0.017453292519943295,0.033051997,0.021985816,-0.0035719294,0.10218793,-0.021178024,0.9945397,0.99476516,0.0021755272,-0.102164775,0.0,-0.9997734,-0.021289473,0.8307879760742187,-0.143652099609375,8.322244970703125,5.6362486,-0.34013048,54.899567,0.019866943
0.03477335379927634,0.02851148549059439,-0.015987748873230498,0.033051997,0.021985816,-0.0035719294,0.10218793,-0.021178024,0.9945397,0.99476516,0.0021755272,-0.102164775,0.0,-0.9997734,-0.021289473,0.86191259765625,-0.1484405029296875,8.180987072753906,5.6533723,-0.34013048,55.0621,0.019866943
0.031842266505850744,0.031042879062189218,-0.014522205226517705,0.033051997,0.021985816,-0.0035719294,0.10218793,-0.021178024,0.9945397,0.99476516,0.0021755272,-0.102164775,0.0,-0.9997734,-0.021289473,0.7829039428710937,-0.24660277099609373,8.259995727539062,5.6688786,-0.34501466,55.225697,0.019805908
0.03037672285913795,0.0302434916185277,-0.01505513018895872,0.033051997,0.021985816,-0.0035719294,0.10218793,-0.021178024,0.9945397,0.99476516,0.0021755272,-0.102164775,0.0,-0.9997734,-0.021289473,0.8930372192382812,-0.15083470458984374,8.228871105957031,5.686566,-0.34501466,55.388676,0.019805908
0.032241960227681506,0.0305099540997482,-0.01851914244482533,0.033051997,0.021985816,-0.0035719294,0.10218793,-0.021178024,0.9945397,0.99476516,0.0021755272,-0.102164775,0.0,-0.9997734,-0.021289473,0.9361328491210937,-0.201112939453125,8.24802471923828,5.7057066,-0.3491268,55.55732,0.020446777
0.03384073511500456,0.027578866806322613,-0.019984686091538122,0.033051997,0.021985816,-0.0035719294,0.10218793,-0.021178024,0.9945397,0.99476516,0.0021755272,-0.102164775,0.0,-0.9997734,-0.021289473,0.8954314208984374,-0.13646949462890623,8.322244970703125,5.723496,-0.3491268,55.722656,0.019866943
0.03290811643073278,0.026779479362661087,-0.01692036755750228,0.033051997,0.021985816,-0.0035719294,0.10218793,-0.021178024,0.9945397,0.99476516,0.0021755272,-0.102164775,0.0,-0.9997734,-0.021289473,0.8858546142578124,-0.0718260498046875,8.276755139160155,5.741041,-0.3491268,55.886585,0.019805908
0.032375191468291764,0.0334410413931738,-0.015588055151399738,0.033051997,0.021985816,-0.0035719294,0.10218793,-0.021178024,0.9945397,0.99476516,0.0021755272,-0.102164775,0.0,-0.9997734,-0.021289473,0.8690952026367187,-0.19871873779296872,8.2360537109375,5.7582808,-0.3491268,56.049957,0.019836426
0.03264165394951227,0.030909647821578966,-0.014788667707738212,0.033051997,0.021985816,-0.0035719294,0.10218793,-0.021178024,0.9945397,0.99476516,0.0021755272,-0.102164775,0.0,-0.9997734,-0.021289473,0.8068459594726562,-0.1292868896484375,8.259995727539062,5.774286,-0.3491268,56.213806,0.019836426
0.031176110302799476,0.027578866806322613,-0.018918836166656093,0.033051997,0.021985816,-0.0035719294,0.10218793,-0.021178024,0.9945397,0.99476516,0.0021755272,-0.102164775,0.0,-0.9997734,-0.021289473,0.7757213378906249,-0.17238251953125,8.288726147460936,5.7896733,-0.3491268,56.378223,0.019836426
0.03477335379927634,0.03170903526524049,-0.01372281778285618,0.033051997,0.021985816,-0.0035719294,0.10218793,-0.021178024,0.9945397,0.99476516,0.0021755272,-0.102164775,0.0,-0.9997734,-0.021289473,0.8547299926757812,-0.22266075439453123,8.264784130859374,5.806628,-0.35354358,56.542168,0.019836426
0.03064318534035846,0.03011026037791744,-0.01505513018895872,0.033051997,0.021985816,-0.0035719294,0.10218793,-0.021178024,0.9945397,0.99476516,0.0021755272,-0.102164775,0.0,-0.9997734,-0.021289473,0.8379705810546875,-0.15322890625,8.238447912597655,5.823276,-0.35354358,56.70584,0.019866943
0.03503981628049684,0.0305099540997482,-0.016787136316892024,0.033051997,0.021985816,-0.0035719294,0.10218793,-0.021178024,0.9945397,0.99476516,0.0021755272,-0.102164775,0.0,-0.9997734,-0.021289473,0.8355763793945312,-0.20350714111328125,8.197746484375,5.8398256,-0.35757422,56.868206,0.019805908
0.033307810152563545,0.031042879062189218,-0.014921898948348467,0.033051997,0.021985816,-0.0035719294,0.10218793,-0.021178024,0.9945397,0.99476516,0.0021755272,-0.102164775,0.0,-0.9997734,-0.021289473,0.8786720092773437,-0.27293898925781246,8.20971749267578,5.8572555,-0.36298835,57.03106,0.019836426
0.032508422708902016,0.0302434916185277,-0.016254211354451008,0.033051997,0.021985816,-0.0035719294,0.10218793,-0.021178024,0.9945397,0.99476516,0.0021755272,-0.102164775,0.0,-0.9997734,-0.021289473,0.8762778076171874,-0.14125789794921875,8.154650854492187,5.8746376,-0.36298835,57.192818,0.019836426
0.036638591167819895,0.03144257278401998,-0.01532159267017923,0.033051997,0.021985816,-0.0035719294,0.10218793,-0.021178024,0.9945397,0.99476516,0.0021755272,-0.102164775,0.0,-0.9997734,-0.021289473,0.8307879760742187,-0.1484405029296875,8.269572534179687,5.8910923,-0.36298835,57.356606,0.019805908
0.03357427263378405,0.028378254249984136,-0.012390505376753637,0.033051997,0.021985816,-0.0035719294,0.10218793,-0.021178024,0.9945397,0.99476516,0.0021755272,-0.102164775,0.0,-0.9997734,-0.021289473,0.8020575561523438,-0.1484405029296875,8.276755139160155,5.9069533,-0.36298835,57.520283,0.01977539
0.029843797896696934,0.03064318534035846,-0.015454823910789483,0.033051997,0.021985816,-0.0035719294,0.10218793,-0.021178024,0.9945397,0.99476516,0.0021755272,-0.102164775,0.0,-0.9997734,-0.021289473,0.8690952026367187,-0.105344873046875,8.29351455078125,5.92414,-0.36298835,57.68429,0.01977539
0.032108728987071254,0.032241960227681506,-0.012523736617363892,0.033051997,0.021985816,-0.0035719294,0.10218793,-0.021178024,0.9945397,0.99476516,0.0021755272,-0.102164775,0.0,-0.9997734,-0.021289473,0.8283937744140625,-0.1771709228515625,8.307879760742187,5.9405723,-0.36298835,57.84909,0.019836426
0.033041347671343035,0.0287779479718149,-0.016787136316892024,0.033051997,0.021985816,-0.0035719294,0.10218793,-0.021178024,0.9945397,0.99476516,0.0021755272,-0.102164775,0.0,-0.9997734,-0.021289473,0.8690952026367187,-0.17238251953125,8.202534887695313,5.9580774,-0.36298835,58.0143,0.020141602
0.033041347671343035,0.02904441045303541,-0.016653905076281773,0.033051997,0.021985816,-0.0035719294,0.10218793,-0.021178024,0.9945397,0.99476516,0.0021755272,-0.102164775,0.0,-0.9997734,-0.021289473,0.8882488159179687,-0.1388636962890625,8.291120349121094,5.9767003,-0.36298835,58.18813,0.020965576
0.03130934154340973,0.03077641658096871,-0.01438897398590745,0.033051997,0.021985816,-0.0035719294,0.10218793,-0.021178024,0.9945397,0.99476516,0.0021755272,-0.102164775,0.0,-0.9997734,-0.021289473,0.8403647827148437,-0.2154781494140625,8.28633194580078,5.993755,-0.3673613,58.356293,0.02029419
0.028245023009373885,0.02997702913730719,-0.013323124061025418,0.033051997,0.021985816,-0.0035719294,0.10218793,-0.021178024,0.9945397,0.99476516,0.0021755272,-0.102164775,0.0,-0.9997734,-0.021289473,0.8690952026367187,-0.20350714111328125,8.33182177734375,6.0114455,-0.37150374,58.52589,0.020355225
0.03424042883683532,0.02997702913730719,-0.013856049023466432,0.033051997,0.021985816,-0.0035719294,0.10218793,-0.021178024,0.9945397,0.99476516,0.0021755272,-0.102164775,0.0,-0.9997734,-0.021289473,0.842758984375,-0.201112939453125,8.243236315917969,6.0285745,-0.3755913,58.69343,0.020324707
0.03583920372415837,0.032774885190122525,-0.015454823910789483,0.033051997,0.021985816,-0.0035719294,0.10218793,-0.021178024,0.9945397,0.99476516,0.0021755272,-0.102164775,0.0,-0.9997734,-0.021289473,0.814028564453125,-0.19393033447265623,8.329427575683594,6.045169,-0.3755913,58.86323,0.020385742
0.036238897445989134,0.028378254249984136,-0.01372281778285618,0.033051997,0.021985816,-0.0035719294,0.10218793,-0.021178024,0.9945397,0.99476516,0.0021755272,-0.102164775,0.0,-0.9997734,-0.021289473,0.8164227661132812,-0.14125789794921875,8.262389929199218,6.061414,-0.3755913,59.027634,0.019897461
0.032774885190122525,0.028378254249984136,-0.01572128639200999,0.033051997,0.021985816,-0.0035719294,0.10218793,-0.021178024,0.9945397,0.99476516,0.0021755272,-0.102164775,0.0,-0.9997734,-0.021289473,0.8810662109374999,-0.16280571289062498,8.298302954101562,6.078891,-0.3755913,59.19224,0.019836426
0.032375191468291764,0.031176110302799476,-0.015987748873230498,0.033051997,0.021985816,-0.0035719294,0.10218793,-0.021178024,0.9945397,0.99476516,0.0021755272,-0.102164775,0.0,-0.9997734,-0.021289473,0.7948749511718749,-0.16041151123046873,8.288726147460936,6.094634,-0.3755913,59.356407,0.019805908
0.036505359927209644,0.02584686067838931,-0.014655436467127957,0.033051997,0.021985816,-0.0035719294,0.10218793,-0.021178024,0.9945397,0.99476516,0.0021755272,-0.102164775,0.0,-0.9997734,-0.021289473,0.852335791015625,-0.19871873779296872,8.207323291015625,6.1115413,-0.3755913,59.51921,0.019836426
0.03144257278401998,0.02851148549059439,-0.014255742745297196,0.033051997,0.021985816,-0.0035719294,0.10218793,-0.021178024,0.9945397,0.99476516,0.0021755272,-0.102164775,0.0,-0.9997734,-0.021289473,0.8379705810546875,-0.1484405029296875,8.180987072753906,6.128164,-0.3755913,59.68149,0.019836426
0.03370750387439431,0.0305099540997482,-0.014122511504686942,0.033051997,0.021985816,-0.0035719294,0.10218793,-0.021178024,0.9945397,0.99476516,0.0021755272,-0.102164775,0.0,-0.9997734,-0.021289473,0.8978256225585937,-0.16998831787109375,8.240842114257813,6.1459737,-0.3755913,59.84496,0.019836426
0.032774885190122525,0.02971056665608668,-0.016653905076281773,0.033051997,0.021985816,-0.0035719294,0.10218793,-0.021178024,0.9945397,0.99476516,0.0021755272,-0.102164775,0.0,-0.9997734,-0.021289473,0.833182177734375,-0.18914193115234373,8.25520732421875,6.162552,-0.3755913,60.009216,0.019897461
0.03397396635561481,0.029310872934255914,-0.014655436467127957,0.033051997,0.021985816,-0.0035719294,0.10218793,-0.021178024,0.9945397,0.99476516,0.0021755272,-0.102164775,0.0,-0.9997734,-0.021289473,0.8164227661132812,-0.13646949462890623,8.279149340820313,6.1787715,-0.3755913,60.1737,0.019866943
0.027712098046932865,0.0287779479718149,-0.016520673835671518,0.033051997,0.021985816,-0.0035719294,0.10218793,-0.021178024,0.9945397,0.99476516,0.0021755272,-0.102164775,0.0,-0.9997734,-0.021289473,0.814028564453125,-0.19153613281249998,8.20971749267578,6.194869,-0.3755913,60.33605,0.01977539
0.03370750387439431,0.029310872934255914,-0.012656967857974145,0.033051997,0.021985816,-0.0035719294,0.10218793,-0.021178024,0.9945397,0.99476516,0.0021755272,-0.102164775,0.0,-0.9997734,-0.021289473,0.82360537109375,-0.181959326171875,8.240842114257813,6.2112317,-0.3755913,60.499767,0.019866943
0.03490658503988659,0.0302434916185277,-0.01372281778285618,0.033051997,0.021985816,-0.0035719294,0.10218793,-0.021178024,0.9945397,0.99476516,0.0021755272,-0.102164775,0.0,-0.9997734,-0.021289473,0.8762778076171874,-0.229843359375,8.307879760742187,6.2290955,-0.38027683,60.66913,0.020385742
0.031975497746460996,0.028644716731204646,-0.016787136316892024,0.033051997,0.021985816,-0.0035719294,0.10218793,-0.021178024,0.9945397,0.99476516,0.0021755272,-0.102164775,0.0,-0.9997734,-0.021289473,0.8068459594726562,-0.143652099609375,8.327033374023436,6.2451496,-0.38027683,60.834816,0.019897461
0.03037672285913795,0.025447166956558548,-0.014255742745297196,0.033051997,0.021985816,-0.0035719294,0.10218793,-0.021178024,0.9945397,0.99476516,0.0021755272,-0.102164775,0.0,-0.9997734,-0.021289473,0.8786720092773437,-0.18435352783203124,8.233659509277343,6.2625527,-0.38027683,60.99789,0.019805908
0.031842266505850744,0.03037672285913795,-0.014788667707738212,0.033051997,0.021985816,-0.0035719294,0.10218793,-0.021178024,0.9945397,0.99476516,0.0021755272,-0.102164775,0.0,-0.9997734,-0.021289473,0.9528922607421875,-0.2154781494140625,8.257601525878906,6.2815127,-0.3845643,61.162197,0.019897461
0.03264165394951227,0.02971056665608668,-0.013989280264076687,0.033051997,0.021985816,-0.0035719294,0.10218793,-0.021178024,0.9945397,0.99476516,0.0021755272,-0.102164775,0.0,-0.9997734,-0.021289473,0.8403647827148437,-0.1580173095703125,8.288726147460936,6.298234,-0.3845643,61.32712,0.019897461
0.033041347671343035,0.027978560528153375,-0.01705359879811253,0.033051997,0.021985816,-0.0035719294,0.10218793,-0.021178024,0.9945397,0.99476516,0.0021755272,-0.102164775,0.0,-0.9997734,-0.021289473,0.8643067993164062,-0.19871873779296872,8.257601525878906,6.3154316,-0.3845643,61.49143,0.019897461
0.03011026037791744,0.03037672285913795,-0.01438897398590745,0.033051997,0.021985816,-0.0035719294,0.10218793,-0.021178024,0.9945397,0.99476516,0.0021755272,-0.102164775,0.0,-0.9997734,-0.021289473,0.8116343627929687,-0.15083470458984374,8.262389929199218,6.3315315,-0.3845643,61.655323,0.019836426
0.03424042883683532,0.02997702913730719,-0.014788667707738212,0.033051997,0.021985816,-0.0035719294,0.10218793,-0.021178024,0.9945397,0.99476516,0.0021755272,-0.102164775,0.0,-0.9997734,-0.021289473,0.86191259765625,-0.1197100830078125,8.346186987304687,6.348629,-0.3845643,61.82088,0.019836426
0.031842266505850744,0.027312404325102103,-0.014122511504686942,0.033051997,0.021985816,-0.0035719294,0.10218793,-0.021178024,0.9945397,0.99476516,0.0021755272,-0.102164775,0.0,-0.9997734,-0.021289473,0.7445967163085937,-0.2537853759765625,8.32463917236328,6.3633766,-0.38959077,61.98576,0.019805908
0.033041347671343035,0.029444104174866172,-0.017719755001163805,0.033051997,0.021985816,-0.0035719294,0.10218793,-0.021178024,0.9945397,0.99476516,0.0021755272,-0.102164775,0.0,-0.9997734,-0.021289473,0.8283937744140625,-0.12689268798828124,8.29351455078125,6.379809,-0.38959077,62.150272,0.019836426
0.03424042883683532,0.029843797896696934,-0.014788667707738212,0.033051997,0.021985816,-0.0035719294,0.10218793,-0.021178024,0.9945397,0.99476516,0.0021755272,-0.102164775,0.0,-0.9997734,-0.021289473,0.8499415893554687,-0.16041151123046873,8.291120349121094,6.396669,-0.38959077,62.31474,0.019836426
0.033041347671343035,0.02904441045303541,-0.014788667707738212,0.033051997,0.021985816,-0.0035719294,0.10218793,-0.021178024,0.9945397,0.99476516,0.0021755272,-0.102164775,0.0,-0.9997734,-0.021289473,0.8068459594726562,-0.086191259765625,8.32463917236328,6.4126,-0.38959077,62.479107,0.019744873
0.031975497746460996,0.031176110302799476,-0.015588055151399738,0.033051997,0.021985816,-0.0035719294,0.10218793,-0.021178024,0.9945397,0.99476516,0.0021755272,-0.102164775,0.0,-0.9997734,-0.021289473,0.7852981445312499,-0.24899697265624998,8.28633194580078,6.4281774,-0.39452997,62.64348,0.019836426
0.03130934154340973,0.02851148549059439,-0.01985145485092787,0.033051997,0.021985816,-0.0035719294,0.10218793,-0.021178024,0.9945397,0.99476516,0.0021755272,-0.102164775,0.0,-0.9997734,-0.021289473,0.8571241943359375,-0.18914193115234373,8.200140686035155,6.4451275,-0.39452997,62.80564,0.01977539
0.031042879062189218,0.027578866806322613,-0.01532159267017923,0.033051997,0.021985816,-0.0035719294,0.10218793,-0.021178024,0.9945397,0.99476516,0.0021755272,-0.102164775,0.0,-0.9997734,-0.021289473,0.8595183959960937,-0.16041151123046873,8.269572534179687,6.4621773,-0.39452997,62.96968,0.019836426
