InpGyro_1X,InpGyro_1Y,InpGyro_1Z,InpGyro_2X,InpGyro_2Y,InpGyro_2Z,GyroX,GyroY,GyroZ,ExpGravityX,ExpGravityY,ExpGravityZ,ExpOxX,ExpOxY,ExpOxZ,ExpOyX,ExpOyY,ExpOyZ,AccX,AccY,AccZ,AccNoiseX,AccNoiseY,AccNoiseZ,ExpSpeedX,ExpSpeedY,ExpSpeedZ,dT
-0.029843797896696934,0.000799387443661525,0.00866003063966652,0.032774885190122525,0.02971056665608668,-0.017586523760553547,0.0,0.0,0.0,0.008728614,-0.006066238,0.9999435,0.999962,5.295187e-05,-0.008728454,0.0,-0.99998164,-0.00606647,0.026360154,-0.014173683,0.01668644,0.00013180077,-7.086841e-05,8.34322e-05,0.0,0.0,0.0,0.008857727
-0.02997702913730719,0.0037304747370871167,0.011058192970651094,0.028245023009373885,0.029843797896696934,-0.013323124061025418,0.0,0.0,0.0,0.008728614,-0.006066238,0.9999435,0.999962,5.295187e-05,-0.008728454,0.0,-0.99998164,-0.00606647,-0.008355767,-0.041706998,-0.007255554,8.936294e-05,-0.00027904904,4.6737267e-05,0.0,0.0,0.0,0.033210754
-0.028245023009373885,0.00159877488732305,0.010258805526989571,0.027312404325102103,0.02691271060327134,-0.014255742745297196,0.0,0.0,0.0,0.008728614,-0.006066238,0.9999435,0.999962,5.295187e-05,-0.008728454,0.0,-0.99998164,-0.00606647,-0.017932575,-0.009385277,0.033446312,-7.4675336e-07,-0.00032458018,0.00021373514,0.0,0.0,0.0,0.03010559
-0.0302434916185277,0.002398162330984575,0.007860643196004996,0.03144257278401998,0.02904441045303541,-0.016254211354451008,0.0,0.0,0.0,0.008728614,-0.006066238,0.9999435,0.999962,5.295187e-05,-0.008728454,0.0,-0.99998164,-0.00606647,-0.025115177,-0.021356288,-7.247925e-05,-0.0001263189,-0.00042973872,0.00021230406,0.0,0.0,0.0,0.029640198
-0.028911179212425153,-0.0003996937218307625,0.00985911180515881,0.0305099540997482,0.03037672285913795,-0.014788667707738212,0.0,0.0,0.0,0.008728614,-0.006066238,0.9999435,0.999962,5.295187e-05,-0.008728454,0.0,-0.99998164,-0.00606647,-0.0526485,-0.018962082,0.014292717,-0.0003889298,-0.0005224004,0.0002827061,0.0,0.0,0.0,0.029571533
-0.029577335415476424,-0.00159877488732305,0.009725880564548555,0.03144257278401998,0.031042879062189218,-0.01692036755750228,0.0,0.0,0.0,0.008728614,-0.006066238,0.9999435,0.999962,5.295187e-05,-0.008728454,0.0,-0.99998164,-0.00606647,-0.019129675,0.0037828311,0.001124382,-0.0004826335,-0.00050087424,0.0002869145,0.0,0.0,0.0,0.029472351
-0.03064318534035846,0.0013323124061025418,0.008793261880276773,0.028644716731204646,0.028245023009373885,-0.01732006127933304,0.0,0.0,0.0,0.008728614,-0.006066238,0.9999435,0.999962,5.295187e-05,-0.008728454,0.0,-0.99998164,-0.00606647,0.021571755,0.007374134,-0.02162075,-0.00037236157,-0.0004614992,0.00017737619,0.0,0.0,0.0,0.02973175
-0.03037672285913795,0.0011990811654922875,0.00866003063966652,0.03264165394951227,0.03144257278401998,-0.017586523760553547,0.0,0.0,0.0,0.008728614,-0.006066238,0.9999435,0.999962,5.295187e-05,-0.008728454,0.0,-0.99998164,-0.00606647,-0.0562398,0.048075564,-0.08865833,-0.0006516988,-0.00021881389,-0.00026680232,0.0,0.0,0.0,0.02999878
-0.031975497746460996,0.0006661562030512709,0.00866003063966652,0.03170903526524049,0.028111791768763626,-0.01692036755750228,0.0,0.0,0.0,0.008728614,-0.006066238,0.9999435,0.999962,5.295187e-05,-0.008728454,0.0,-0.99998164,-0.00606647,-0.029903583,-0.018962082,-0.0707016,-0.00079795823,-0.00031253023,-0.0006189763,0.0,0.0,0.0,0.030014038
-0.029310872934255914,0.000799387443661525,0.01052526800821008,0.027712098046932865,0.02744563556571236,-0.017186830038722786,0.0,0.0,0.0,0.008728614,-0.006066238,0.9999435,0.999962,5.295187e-05,-0.008728454,0.0,-0.99998164,-0.00606647,0.026360154,-0.015370782,0.028657913,-0.0006621677,-0.0003878215,-0.00047259184,0.0,0.0,0.0,0.029953003
-0.03064318534035846,-0.001732006127933304,0.008393568158446012,0.030909647821578966,0.03144257278401998,-0.017586523760553547,0.0,0.0,0.0,0.008728614,-0.006066238,0.9999435,0.999962,5.295187e-05,-0.008728454,0.0,-0.99998164,-0.00606647,0.0036152378,0.021739345,0.026263237,-0.0006407806,-0.00027718567,-0.0003389127,0.0,0.0,0.0,0.030021667
-0.02971056665608668,0.002264931090374321,0.0095926493239383,0.028644716731204646,0.0302434916185277,-0.017186830038722786,0.0,0.0,0.0,0.008728614,-0.006066238,0.9999435,0.999962,5.295187e-05,-0.008728454,0.0,-0.99998164,-0.00606647,-0.025115177,0.0037828311,0.05379677,-0.00076315255,-0.0002568856,-6.823431e-05,0.0,0.0,0.0,0.029960632
-0.0302434916185277,-0.0018652373685435584,0.008926493120887028,0.03290811643073278,0.029177641693645662,-0.01532159267017923,0.0,0.0,0.0,0.008728614,-0.006066238,0.9999435,0.999962,5.295187e-05,-0.008728454,0.0,-0.99998164,-0.00606647,-0.033494886,-0.009385277,-0.0084524155,-0.00092681125,-0.00030252754,-0.00011015522,0.0,0.0,0.0,0.030525208
-0.03290811643073278,0.0002664624812205083,0.007993874436615249,0.0305099540997482,0.03170903526524049,-0.017852986241774057,0.0,0.0,0.0,0.008728614,-0.006066238,0.9999435,0.999962,5.295187e-05,-0.008728454,0.0,-0.99998164,-0.00606647,-0.03948039,-0.0357215,-0.018029213,-0.0011195792,-0.0004796224,-0.0001997505,0.0,0.0,0.0,0.030090332
-0.03037672285913795,0.0037304747370871167,0.009725880564548555,0.03170903526524049,0.029577335415476424,-0.014255742745297196,0.0,0.0,0.0,0.008728614,-0.006066238,0.9999435,0.999962,5.295187e-05,-0.008728454,0.0,-0.99998164,-0.00606647,-0.011947073,0.036104552,0.014292717,-0.0011737166,-0.00029670156,-0.00012728816,0.0,0.0,0.0,0.029563904
-0.0287779479718149,0.0014655436467127959,0.006928024511733216,0.031176110302799476,0.032375191468291764,-0.016254211354451008,0.0,0.0,0.0,0.008728614,-0.006066238,0.9999435,0.999962,5.295187e-05,-0.008728454,0.0,-0.99998164,-0.00606647,0.008403644,0.00019152835,0.040628433,-0.0011258298,-0.00029426042,7.649044e-05,0.0,0.0,0.0,0.02947998
-0.029444104174866172,-0.0006661562030512709,0.009326186842717792,0.030909647821578966,0.0305099540997482,-0.013589586542245924,0.0,0.0,0.0,0.008728614,-0.006066238,0.9999435,0.999962,5.295187e-05,-0.008728454,0.0,-0.99998164,-0.00606647,-0.0562398,0.007374134,-0.020422935,-0.0014013996,-0.00025591842,-2.6006688e-05,0.0,0.0,0.0,0.029426575
-0.03144257278401998,-0.0006661562030512709,0.009725880564548555,0.0302434916185277,0.02971056665608668,-0.01692036755750228,0.0,0.0,0.0,0.008728614,-0.006066238,0.9999435,0.999962,5.295187e-05,-0.008728454,0.0,-0.99998164,-0.00606647,-0.020326775,-0.0033997744,-0.018029213,-0.0014960264,-0.00027163772,-0.00011602272,0.0,0.0,0.0,0.029899597
-0.03130934154340973,0.0030643185340358454,0.0058621745868511835,0.028644716731204646,0.029843797896696934,-0.017719755001163805,0.0,0.0,0.0,0.008728614,-0.006066238,0.9999435,0.999962,5.295187e-05,-0.008728454,0.0,-0.99998164,-0.00606647,-0.040677488,-0.011779476,0.05020523,-0.0016919337,-0.0003291769,0.00013558354,0.0,0.0,0.0,0.029960632
-0.027578866806322613,0.0005329249624410166,0.006528330789902454,0.032375191468291764,0.0287779479718149,-0.013856049023466432,0.0,0.0,0.0,0.008728614,-0.006066238,0.9999435,0.999962,5.295187e-05,-0.008728454,0.0,-0.99998164,-0.00606647,0.025163054,-0.005793974,-0.057533264,-0.0015576588,-0.00035650088,-0.00015276068,0.0,0.0,0.0,0.030029297
-0.03037672285913795,0.002398162330984575,0.008526799399056265,0.029310872934255914,0.03011026037791744,-0.019318529888486854,0.0,0.0,0.0,0.008728614,-0.006066238,0.9999435,0.999962,5.295187e-05,-0.008728454,0.0,-0.99998164,-0.00606647,0.03114856,0.037301652,-0.025211334,-0.0013941277,-0.00016821013,-0.00027805354,0.0,0.0,0.0,0.030075073
-0.029843797896696934,0.0030643185340358454,0.006794793271122962,0.029310872934255914,0.028644716731204646,-0.017852986241774057,0.0,0.0,0.0,0.008728614,-0.006066238,0.9999435,0.999962,5.295187e-05,-0.008728454,0.0,-0.99998164,-0.00606647,0.0036152378,-0.024947587,-0.046759605,-0.001369081,-0.000292107,-0.0005104613,0.0,0.0,0.0,0.029594421
-0.02904441045303541,0.0029310872934255917,0.008526799399056265,0.0302434916185277,0.03170903526524049,-0.017186830038722786,0.0,0.0,0.0,0.008728614,-0.006066238,0.9999435,0.999962,5.295187e-05,-0.008728454,0.0,-0.99998164,-0.00606647,-0.013144173,0.0025857314,-7.247925e-05,-0.0014279564,-0.0002777178,-0.0005082714,0.0,0.0,0.0,0.029525757
-0.03144257278401998,0.0011990811654922875,0.0075941807147844875,0.03130934154340973,0.029577335415476424,-0.015854517632620246,0.0,0.0,0.0,0.008728614,-0.006066238,0.9999435,0.999962,5.295187e-05,-0.008728454,0.0,-0.99998164,-0.00606647,0.019177549,0.033710353,-0.04436493,-0.001324929,-0.000107777436,-0.00072755467,0.0,0.0,0.0,0.029525757
-0.031176110302799476,0.000799387443661525,0.009059724361497283,0.03144257278401998,0.031575804024630234,-0.015854517632620246,0.0,0.0,0.0,0.008728614,-0.006066238,0.9999435,0.999962,5.295187e-05,-0.008728454,0.0,-0.99998164,-0.00606647,-0.005961567,0.024133546,-0.0024671555,-0.0013481121,1.3429177e-05,-0.0007362527,0.0,0.0,0.0,0.030296326
-0.0287779479718149,0.00013323124061025415,0.008127105677225504,0.031842266505850744,0.026513016881440577,-0.016787136316892024,0.0,0.0,0.0,0.008728614,-0.006066238,0.9999435,0.999962,5.295187e-05,-0.008728454,0.0,-0.99998164,-0.00606647,0.040725365,0.008571234,0.0059127808,-0.0011377448,5.6218196e-05,-0.0007030075,0.0,0.0,0.0,0.030082703
-0.03144257278401998,0.0010658499248820332,0.007860643196004996,0.032375191468291764,0.029310872934255914,-0.01851914244482533,0.0,0.0,0.0,0.008728614,-0.006066238,0.9999435,0.999962,5.295187e-05,-0.008728454,0.0,-0.99998164,-0.00606647,-0.001173161,-0.023750488,-0.022817612,-0.0011379218,-6.2815336e-05,-0.0008135805,0.0,0.0,0.0,0.029907227
-0.03130934154340973,0.0014655436467127959,0.0073277182335639785,0.027978560528153375,0.029843797896696934,-0.016387442595061263,0.0,0.0,0.0,0.008728614,-0.006066238,0.9999435,0.999962,5.295187e-05,-0.008728454,0.0,-0.99998164,-0.00606647,0.0155862495,0.01335964,0.015489578,-0.001054301,4.296933e-06,-0.0007320647,0.0,0.0,0.0,0.030128479
-0.03077641658096871,-0.0005329249624410166,0.008526799399056265,0.026779479362661087,0.031842266505850744,-0.016653905076281773,0.0,0.0,0.0,0.008728614,-0.006066238,0.9999435,0.999962,5.295187e-05,-0.008728454,0.0,-0.99998164,-0.00606647,0.002418138,0.066032074,0.04182625,-0.0010369389,0.0003344358,-0.00051927316,0.0,0.0,0.0,0.029449463
-0.02971056665608668,0.0002664624812205083,0.009992343045769061,0.03317457891195329,0.028644716731204646,-0.015188361429568975,0.0,0.0,0.0,0.008728614,-0.006066238,0.9999435,0.999962,5.295187e-05,-0.008728454,0.0,-0.99998164,-0.00606647,-0.023918077,-0.024947587,0.05379677,-0.0011513446,0.00020802568,-0.00024769298,0.0,0.0,0.0,0.029464722
-0.030909647821578966,0.0039969372183076245,0.009992343045769061,0.032241960227681506,0.031842266505850744,-0.015454823910789483,0.0,0.0,0.0,0.008728614,-0.006066238,0.9999435,0.999962,5.295187e-05,-0.008728454,0.0,-0.99998164,-0.00606647,-0.0047644675,0.00019152835,-0.03359127,-0.0011694102,0.0002079432,-0.00041441087,0.0,0.0,0.0,0.029556274
-0.031042879062189218,0.003464012255866608,0.007727411955394742,0.029843797896696934,0.02997702913730719,-0.016120980113840753,0.0,0.0,0.0,0.008728614,-0.006066238,0.9999435,0.999962,5.295187e-05,-0.008728454,0.0,-0.99998164,-0.00606647,0.0012210384,0.033710353,-0.043168068,-0.0011574579,0.00037545525,-0.0006281792,0.0,0.0,0.0,0.029769897
-0.029843797896696934,-0.0002664624812205083,0.0074609494741742334,0.032774885190122525,0.032108728987071254,-0.01692036755750228,0.0,0.0,0.0,0.008728614,-0.006066238,0.9999435,0.999962,5.295187e-05,-0.008728454,0.0,-0.99998164,-0.00606647,-0.007158667,0.006177034,-0.037182808,-0.001187464,0.00040446312,-0.00081095233,0.0,0.0,0.0,0.030082703
-0.03011026037791744,-0.0014655436467127959,0.0073277182335639785,0.03037672285913795,0.03064318534035846,-0.017719755001163805,0.0,0.0,0.0,0.008728614,-0.006066238,0.9999435,0.999962,5.295187e-05,-0.008728454,0.0,-0.99998164,-0.00606647,0.041922465,0.0037828311,0.021474838,-0.0009719144,0.00042135495,-0.00069952337,0.0,0.0,0.0,0.029945374
-0.029177641693645662,0.0013323124061025418,0.008926493120887028,0.03037672285913795,0.029577335415476424,-0.015987748873230498,0.0,0.0,0.0,0.008728614,-0.006066238,0.9999435,0.999962,5.295187e-05,-0.008728454,0.0,-0.99998164,-0.00606647,0.02995146,0.019345142,-0.022817612,-0.0008172975,0.0005159739,-0.0008101138,0.0,0.0,0.0,0.029953003
-0.03077641658096871,0.0005329249624410166,0.0075941807147844875,0.0287779479718149,0.031575804024630234,-0.01692036755750228,0.0,0.0,0.0,0.008728614,-0.006066238,0.9999435,0.999962,5.295187e-05,-0.008728454,0.0,-0.99998164,-0.00606647,2.3938715e-05,0.0145567395,-0.009649277,-0.00081309135,0.0005861777,-0.00085430965,0.0,0.0,0.0,0.029464722
-0.030909647821578966,0.0006661562030512709,0.010125574286379316,0.029843797896696934,0.02691271060327134,-0.015588055151399738,0.0,0.0,0.0,0.008728614,-0.006066238,0.9999435,0.999962,5.295187e-05,-0.008728454,0.0,-0.99998164,-0.00606647,-0.02870648,-0.008188177,0.0059127808,-0.0009525583,0.00054230593,-0.0008204742,0.0,0.0,0.0,0.02999115
-0.028378254249984136,-0.0005329249624410166,0.00866003063966652,0.029310872934255914,0.029444104174866172,-0.01505513018895872,0.0,0.0,0.0,0.008728614,-0.006066238,0.9999435,0.999962,5.295187e-05,-0.008728454,0.0,-0.99998164,-0.00606647,-0.017932575,0.008571234,0.0023212433,-0.0010374584,0.00058245054,-0.0008047656,0.0,0.0,0.0,0.02949524
-0.029843797896696934,-0.0003996937218307625,0.00866003063966652,0.029843797896696934,0.029177641693645662,-0.018785604926045835,0.0,0.0,0.0,0.008728614,-0.006066238,0.9999435,0.999962,5.295187e-05,-0.008728454,0.0,-0.99998164,-0.00606647,0.05389347,0.001388628,-0.013240814,-0.00076280383,0.0005864814,-0.00086694583,0.0,0.0,0.0,0.029769897
-0.028911179212425153,-0.0018652373685435584,0.008393568158446012,0.029577335415476424,0.02744563556571236,-0.016254211354451008,0.0,0.0,0.0,0.008728614,-0.006066238,0.9999435,0.999962,5.295187e-05,-0.008728454,0.0,-0.99998164,-0.00606647,0.0119949505,0.03131615,-0.015634537,-0.0006990151,0.0007401298,-0.00094078376,0.0,0.0,0.0,0.02999115
-0.027845329287543123,0.0009326186842717792,0.008393568158446012,0.031975497746460996,0.030909647821578966,-0.018385911204215073,0.0,0.0,0.0,0.008728614,-0.006066238,0.9999435,0.999962,5.295187e-05,-0.008728454,0.0,-0.99998164,-0.00606647,-0.03828329,-0.005793974,-0.037182808,-0.00088693644,0.0007074592,-0.0011219939,0.0,0.0,0.0,0.029899597
-0.028644716731204646,0.0013323124061025418,0.011457886692481857,0.0305099540997482,0.029444104174866172,-0.014921898948348467,0.0,0.0,0.0,0.008728614,-0.006066238,0.9999435,0.999962,5.295187e-05,-0.008728454,0.0,-0.99998164,-0.00606647,-0.034691986,-0.016567882,0.01668644,-0.0010559617,0.00062108255,-0.0010329518,0.0,0.0,0.0,0.02998352
-0.03130934154340973,0.002398162330984575,0.008393568158446012,0.0287779479718149,0.029444104174866172,-0.017719755001163805,0.0,0.0,0.0,0.008728614,-0.006066238,0.9999435,0.999962,5.295187e-05,-0.008728454,0.0,-0.99998164,-0.00606647,0.043119572,-0.017764982,-0.02760601,-0.00083508407,0.0005291522,-0.001165817,0.0,0.0,0.0,0.029640198
-0.03064318534035846,0.0029310872934255917,0.006928024511733216,0.03011026037791744,0.027978560528153375,-0.01705359879811253,0.0,0.0,0.0,0.008728614,-0.006066238,0.9999435,0.999962,5.295187e-05,-0.008728454,0.0,-0.99998164,-0.00606647,-0.033494886,-0.008188177,0.025066376,-0.000998383,0.00048556557,-0.0010346561,0.0,0.0,0.0,0.029953003
-0.029577335415476424,-0.0010658499248820332,0.007993874436615249,0.028378254249984136,0.032108728987071254,-0.01532159267017923,0.0,0.0,0.0,0.008728614,-0.006066238,0.9999435,0.999962,5.295187e-05,-0.008728454,0.0,-0.99998164,-0.00606647,0.04551377,0.006177034,0.0047159195,-0.0007658223,0.00051402295,-0.0010059032,0.0,0.0,0.0,0.02986145
-0.03264165394951227,0.002531393571594829,0.008793261880276773,0.02997702913730719,0.031575804024630234,-0.016787136316892024,0.0,0.0,0.0,0.008728614,-0.006066238,0.9999435,0.999962,5.295187e-05,-0.008728454,0.0,-0.99998164,-0.00606647,-0.02870648,-0.006991077,-7.247925e-05,-0.0009055256,0.00047649746,-0.0010012361,0.0,0.0,0.0,0.030220032
-0.02971056665608668,0.000799387443661525,0.01052526800821008,0.03130934154340973,0.02904441045303541,-0.01692036755750228,0.0,0.0,0.0,0.008728614,-0.006066238,0.9999435,0.999962,5.295187e-05,-0.008728454,0.0,-0.99998164,-0.00606647,0.01319205,0.032513253,-0.041971207,-0.0008350377,0.0006366812,-0.001206086,0.0,0.0,0.0,0.030303955
-0.029843797896696934,0.0002664624812205083,0.0063950995492922,0.0302434916185277,0.0305099540997482,-0.017852986241774057,0.0,0.0,0.0,0.008728614,-0.006066238,0.9999435,0.999962,5.295187e-05,-0.008728454,0.0,-0.99998164,-0.00606647,-0.033494886,-0.008188177,0.013095856,-0.0009983369,0.00059255696,-0.0011345763,0.0,0.0,0.0,0.030395508
-0.02971056665608668,0.002531393571594829,0.009192955602107537,0.031042879062189218,0.02971056665608668,-0.017453292519943295,0.0,0.0,0.0,0.008728614,-0.006066238,0.9999435,0.999962,5.295187e-05,-0.008728454,0.0,-0.99998164,-0.00606647,0.055090584,-0.0010055713,0.040628433,-0.00071789237,0.0005845663,-0.0009257612,0.0,0.0,0.0,0.03100586
-0.02851148549059439,-0.00013323124061025415,0.006128637068071691,0.032108728987071254,0.029444104174866172,-0.014788667707738212,0.0,0.0,0.0,0.008728614,-0.006066238,0.9999435,0.999962,5.295187e-05,-0.008728454,0.0,-0.99998164,-0.00606647,-0.001173161,0.04089296,-0.018029213,-0.00072016875,0.00078610826,-0.0010112785,0.0,0.0,0.0,0.029937744
-0.02904441045303541,0.0005329249624410166,0.008127105677225504,0.03144257278401998,0.028245023009373885,-0.016254211354451008,0.0,0.0,0.0,0.008728614,-0.006066238,0.9999435,0.999962,5.295187e-05,-0.008728454,0.0,-0.99998164,-0.00606647,-0.06940791,-0.033327293,-0.0060577393,-0.0010636074,0.00061554124,-0.0010365108,0.0,0.0,0.0,0.029907227
-0.02971056665608668,0.0005329249624410166,0.006261868308681946,0.03064318534035846,0.031975497746460996,-0.016387442595061263,0.0,0.0,0.0,0.008728614,-0.006066238,0.9999435,0.999962,5.295187e-05,-0.008728454,0.0,-0.99998164,-0.00606647,0.004812345,-0.008188177,-0.02760601,-0.0010342275,0.0005715226,-0.0011693583,0.0,0.0,0.0,0.029785156
-0.029843797896696934,0.00013323124061025415,0.008526799399056265,0.03264165394951227,0.03144257278401998,-0.018652373685435583,0.0,0.0,0.0,0.008728614,-0.006066238,0.9999435,0.999962,5.295187e-05,-0.008728454,0.0,-0.99998164,-0.00606647,0.041922465,-0.017764982,0.023869514,-0.0008194441,0.00047984015,-0.0010441638,0.0,0.0,0.0,0.030204773
-0.0302434916185277,-0.0005329249624410166,0.0095926493239383,0.029310872934255914,0.028245023009373885,-0.017586523760553547,0.0,0.0,0.0,0.008728614,-0.006066238,0.9999435,0.999962,5.295187e-05,-0.008728454,0.0,-0.99998164,-0.00606647,0.04790797,0.001388628,-0.009649277,-0.000575807,0.00048438407,-0.0010871894,0.0,0.0,0.0,0.030326843
-0.0302434916185277,-0.0011990811654922875,0.006261868308681946,0.03264165394951227,0.02997702913730719,-0.01532159267017923,0.0,0.0,0.0,0.008728614,-0.006066238,0.9999435,0.999962,5.295187e-05,-0.008728454,0.0,-0.99998164,-0.00606647,-0.007158667,-0.027341787,0.022672653,-0.00060872134,0.00034525324,-0.00096839026,0.0,0.0,0.0,0.030311584
-0.029310872934255914,0.0033307810152563544,0.01052526800821008,0.03037672285913795,0.031975497746460996,-0.017719755001163805,0.0,0.0,0.0,0.008728614,-0.006066238,0.9999435,0.999962,5.295187e-05,-0.008728454,0.0,-0.99998164,-0.00606647,-0.014341272,0.04209006,0.013095856,-0.0006773841,0.00055397727,-0.00089806906,0.0,0.0,0.0,0.03025055
-0.032375191468291764,-0.0005329249624410166,0.0075941807147844875,0.03037672285913795,0.028911179212425153,-0.016787136316892024,0.0,0.0,0.0,0.008728614,-0.006066238,0.9999435,0.999962,5.295187e-05,-0.008728454,0.0,-0.99998164,-0.00606647,-0.080181815,0.01575384,0.029854774,-0.0010749062,0.0006299766,-0.00074430485,0.0,0.0,0.0,0.02986145
-0.028378254249984136,0.0026646248122050836,0.010791730489430587,0.032774885190122525,0.032108728987071254,-0.017586523760553547,0.0,0.0,0.0,0.008728614,-0.006066238,0.9999435,0.999962,5.295187e-05,-0.008728454,0.0,-0.99998164,-0.00606647,-0.008355767,-0.008188177,0.08013344,-0.0011113104,0.00058588583,-0.00033991615,0.0,0.0,0.0,0.029823303
-0.02904441045303541,-0.000799387443661525,0.0074609494741742334,0.02851148549059439,0.031042879062189218,-0.017453292519943295,0.0,0.0,0.0,0.008728614,-0.006066238,0.9999435,0.999962,5.295187e-05,-0.008728454,0.0,-0.99998164,-0.00606647,-0.015538372,-0.033327293,-0.079081535,-0.0011834458,0.00041631996,-0.0007336242,0.0,0.0,0.0,0.029777527
-0.031042879062189218,0.0011990811654922875,0.00866003063966652,0.02997702913730719,0.0334410413931738,-0.01705359879811253,0.0,0.0,0.0,0.008728614,-0.006066238,0.9999435,0.999962,5.295187e-05,-0.008728454,0.0,-0.99998164,-0.00606647,-0.0035673603,0.009768337,-0.053941727,-0.0011953653,0.00046308007,-0.0009996647,0.0,0.0,0.0,0.03011322
-0.03437366007744557,0.0002664624812205083,0.007993874436615249,0.03037672285913795,0.030909647821578966,-0.017586523760553547,0.0,0.0,0.0,0.008728614,-0.006066238,0.9999435,0.999962,5.295187e-05,-0.008728454,0.0,-0.99998164,-0.00606647,-0.02870648,0.024133546,0.04302311,-0.0013329209,0.0005814324,-0.0007795508,0.0,0.0,0.0,0.030906677
-0.03077641658096871,0.0005329249624410166,0.009992343045769061,0.029310872934255914,0.029177641693645662,-0.01692036755750228,0.0,0.0,0.0,0.008728614,-0.006066238,0.9999435,0.999962,5.295187e-05,-0.008728454,0.0,-0.99998164,-0.00606647,-0.007158667,-0.006991077,-0.015634537,-0.0013620496,0.00054356985,-0.0008538257,0.0,0.0,0.0,0.030418396
-0.03144257278401998,0.0011990811654922875,0.007061255752343471,0.03397396635561481,0.029843797896696934,-0.016120980113840753,0.0,0.0,0.0,0.008728614,-0.006066238,0.9999435,0.999962,5.295187e-05,-0.008728454,0.0,-0.99998164,-0.00606647,-0.014341272,0.036104552,-0.0036640167,-0.0014269457,0.00072137476,-0.0008678767,0.0,0.0,0.0,0.030319214
-0.03011026037791744,0.000799387443661525,0.00866003063966652,0.02851148549059439,0.026113323159609816,-0.017986217482384312,0.0,0.0,0.0,0.008728614,-0.006066238,0.9999435,0.999962,5.295187e-05,-0.008728454,0.0,-0.99998164,-0.00606647,0.035936967,-0.015370782,0.040628433,-0.0012401261,0.00064091396,-0.00066039513,0.0,0.0,0.0,0.030281067
-0.029310872934255914,0.002531393571594829,0.008393568158446012,0.03144257278401998,0.031842266505850744,-0.01985145485092787,0.0,0.0,0.0,0.008728614,-0.006066238,0.9999435,0.999962,5.295187e-05,-0.008728454,0.0,-0.99998164,-0.00606647,0.019177549,-0.0405099,-0.0036640167,-0.0011380378,0.0004351599,-0.0006754133,0.0,0.0,0.0,0.030303955
-0.029577335415476424,0.002264931090374321,0.006661562030512709,0.027978560528153375,0.02904441045303541,-0.016254211354451008,0.0,0.0,0.0,0.008728614,-0.006066238,0.9999435,0.999962,5.295187e-05,-0.008728454,0.0,-0.99998164,-0.00606647,-0.008355767,-0.012976583,-0.0036640167,-0.0011741264,0.00036810117,-0.0006903563,0.0,0.0,0.0,0.03024292
-0.02744563556571236,0.0018652373685435584,0.00985911180515881,0.03037672285913795,0.0287779479718149,-0.016120980113840753,0.0,0.0,0.0,0.008728614,-0.006066238,0.9999435,0.999962,5.295187e-05,-0.008728454,0.0,-0.99998164,-0.00606647,0.02995146,0.018148042,0.014292717,-0.0010184986,0.0004570009,-0.00061544095,0.0,0.0,0.0,0.030075073
-0.02997702913730719,-0.0010658499248820332,0.006928024511733216,0.031575804024630234,0.03064318534035846,-0.015454823910789483,0.0,0.0,0.0,0.008728614,-0.006066238,0.9999435,0.999962,5.295187e-05,-0.008728454,0.0,-0.99998164,-0.00606647,0.03114856,0.044484258,0.01668644,-0.0008576633,0.00067713717,-0.00052893156,0.0,0.0,0.0,0.029777527
-0.03144257278401998,0.0010658499248820332,0.00985911180515881,0.02851148549059439,0.031842266505850744,-0.01705359879811253,0.0,0.0,0.0,0.008728614,-0.006066238,0.9999435,0.999962,5.295187e-05,-0.008728454,0.0,-0.99998164,-0.00606647,-0.008355767,0.012162536,0.031051636,-0.0008951538,0.00073456415,-0.00037102873,0.0,0.0,0.0,0.029800415
-0.03064318534035846,0.0026646248122050836,0.007194486992953725,0.02971056665608668,0.02971056665608668,-0.014122511504686942,0.0,0.0,0.0,0.008728614,-0.006066238,0.9999435,0.999962,5.295187e-05,-0.008728454,0.0,-0.99998164,-0.00606647,-0.005961567,0.016950939,-0.052744865,-0.0009204859,0.000815646,-0.00063289795,0.0,0.0,0.0,0.030090332
-0.031042879062189218,0.0005329249624410166,0.008926493120887028,0.03064318534035846,0.029444104174866172,-0.018918836166656093,0.0,0.0,0.0,0.008728614,-0.006066238,0.9999435,0.999962,5.295187e-05,-0.008728454,0.0,-0.99998164,-0.00606647,-0.017932575,0.00019152835,-0.0060577393,-0.0010055463,0.00081252545,-0.0006600222,0.0,0.0,0.0,0.03036499
-0.03170903526524049,0.002797856052815337,0.011724349173702367,0.032108728987071254,0.027978560528153375,-0.017852986241774057,0.0,0.0,0.0,0.008728614,-0.006066238,0.9999435,0.999962,5.295187e-05,-0.008728454,0.0,-0.99998164,-0.00606647,-0.005961567,0.026527748,0.011898041,-0.0010303264,0.0009411016,-0.0005972319,0.0,0.0,0.0,0.030288696
-0.02997702913730719,0.0035972434964768626,0.0073277182335639785,0.032241960227681506,0.031176110302799476,-0.016520673835671518,0.0,0.0,0.0,0.008728614,-0.006066238,0.9999435,0.999962,5.295187e-05,-0.008728454,0.0,-0.99998164,-0.00606647,-0.040677488,0.009768337,-0.031197548,-0.0012285622,0.0009852378,-0.0007502335,0.0,0.0,0.0,0.03075409
-0.02904441045303541,0.0013323124061025418,0.00985911180515881,0.031042879062189218,0.028911179212425153,-0.015854517632620246,0.0,0.0,0.0,0.008728614,-0.006066238,0.9999435,0.999962,5.295187e-05,-0.008728454,0.0,-0.99998164,-0.00606647,0.004812345,-0.027341787,-0.012043953,-0.0011983577,0.0008436026,-0.00080670207,0.0,0.0,0.0,0.029800415
-0.028911179212425153,-0.00013323124061025415,0.007727411955394742,0.02971056665608668,0.029843797896696934,-0.015854517632620246,0.0,0.0,0.0,0.008728614,-0.006066238,0.9999435,0.999962,5.295187e-05,-0.008728454,0.0,-0.99998164,-0.00606647,0.008403644,0.007374134,0.026263237,-0.0011503476,0.0008762552,-0.0006713524,0.0,0.0,0.0,0.029846191
-0.029843797896696934,0.0002664624812205083,0.007194486992953725,0.02904441045303541,0.029444104174866172,-0.01732006127933304,0.0,0.0,0.0,0.008728614,-0.006066238,0.9999435,0.999962,5.295187e-05,-0.008728454,0.0,-0.99998164,-0.00606647,-0.011947073,0.05765237,0.023869514,-0.0012043313,0.0011601357,-0.000548648,0.0,0.0,0.0,0.029815674
-0.02851148549059439,-0.0006661562030512709,0.01052526800821008,0.031575804024630234,0.028911179212425153,-0.019318529888486854,0.0,0.0,0.0,0.008728614,-0.006066238,0.9999435,0.999962,5.295187e-05,-0.008728454,0.0,-0.99998164,-0.00606647,-0.0550427,-0.011779476,0.001124382,-0.0014735231,0.0010954377,-0.00054028287,0.0,0.0,0.0,0.030197144
-0.02851148549059439,0.004263399699528133,0.009192955602107537,0.02971056665608668,0.031975497746460996,-0.01732006127933304,0.0,0.0,0.0,0.008728614,-0.006066238,0.9999435,0.999962,5.295187e-05,-0.008728454,0.0,-0.99998164,-0.00606647,-0.033494886,-0.014173683,0.008307457,-0.0016336299,0.001019092,-0.0004960442,0.0,0.0,0.0,0.030273438
-0.028111791768763626,-0.0029310872934255917,0.009192955602107537,0.03011026037791744,0.029843797896696934,-0.016520673835671518,0.0,0.0,0.0,0.008728614,-0.006066238,0.9999435,0.999962,5.295187e-05,-0.008728454,0.0,-0.99998164,-0.00606647,-0.031100683,0.04568136,0.04302311,-0.0017809651,0.0012424034,-0.0002784484,0.0,0.0,0.0,0.030387878
-0.0287779479718149,0.0018652373685435584,0.010125574286379316,0.027978560528153375,0.03037672285913795,-0.015987748873230498,0.0,0.0,0.0,0.008728614,-0.006066238,0.9999435,0.999962,5.295187e-05,-0.008728454,0.0,-0.99998164,-0.00606647,-0.015538372,0.025330646,0.0023212433,-0.0018497522,0.0013628446,-0.00026544993,0.0,0.0,0.0,0.030342102
-0.02971056665608668,0.0009326186842717792,0.008393568158446012,0.032375191468291764,0.02997702913730719,-0.017186830038722786,0.0,0.0,0.0,0.008728614,-0.006066238,0.9999435,0.999962,5.295187e-05,-0.008728454,0.0,-0.99998164,-0.00606647,0.009600744,0.021739345,-0.015634537,-0.0017924997,0.0014647271,-0.00034229536,0.0,0.0,0.0,0.029762268
-0.03011026037791744,-0.0009326186842717792,0.00985911180515881,0.032108728987071254,0.03170903526524049,-0.01505513018895872,0.0,0.0,0.0,0.008728614,-0.006066238,0.9999435,0.999962,5.295187e-05,-0.008728454,0.0,-0.99998164,-0.00606647,-0.032297783,0.025330646,0.089710236,-0.0019450261,0.0015840568,0.000107967295,0.0,0.0,0.0,0.029808044
-0.0302434916185277,-0.0003996937218307625,0.006661562030512709,0.029843797896696934,0.029177641693645662,-0.014921898948348467,0.0,0.0,0.0,0.008728614,-0.006066238,0.9999435,0.999962,5.295187e-05,-0.008728454,0.0,-0.99998164,-0.00606647,0.0060094446,-0.020159189,0.052599907,-0.0019052537,0.0014753405,0.00037042698,0.0,0.0,0.0,0.02974701
-0.032774885190122525,-0.0003996937218307625,0.00985911180515881,0.028245023009373885,0.03144257278401998,-0.01732006127933304,0.0,0.0,0.0,0.008728614,-0.006066238,0.9999435,0.999962,5.295187e-05,-0.008728454,0.0,-0.99998164,-0.00606647,-0.011947073,0.001388628,0.009504318,-0.0019554629,0.0014749069,0.00041609642,0.0,0.0,0.0,0.030715942
-0.028245023009373885,0.0031975497746461,0.01185758041431262,0.028644716731204646,0.031176110302799476,-0.017186830038722786,0.0,0.0,0.0,0.008728614,-0.006066238,0.9999435,0.999962,5.295187e-05,-0.008728454,0.0,-0.99998164,-0.00606647,-0.017932575,0.019345142,0.029854774,-0.0020353484,0.001564258,0.0005632898,0.0,0.0,0.0,0.030319214
-0.027712098046932865,0.0006661562030512709,0.007727411955394742,0.02851148549059439,0.03370750387439431,-0.015454823910789483,0.0,0.0,0.0,0.008728614,-0.006066238,0.9999435,0.999962,5.295187e-05,-0.008728454,0.0,-0.99998164,-0.00606647,-0.0538456,0.007374134,0.07414818,-0.0022943995,0.0015933075,0.00093121425,0.0,0.0,0.0,0.030418396
-0.02971056665608668,0.002531393571594829,0.006661562030512709,0.031176110302799476,0.03144257278401998,-0.017986217482384312,0.0,0.0,0.0,0.008728614,-0.006066238,0.9999435,0.999962,5.295187e-05,-0.008728454,0.0,-0.99998164,-0.00606647,0.010797843,-0.016567882,-0.022817612,-0.0022289383,0.0015025015,0.0008124701,0.0,0.0,0.0,0.03023529
-0.031842266505850744,-0.000799387443661525,0.0057289433462409285,0.03130934154340973,0.029577335415476424,-0.019318529888486854,0.0,0.0,0.0,0.008728614,-0.006066238,0.9999435,0.999962,5.295187e-05,-0.008728454,0.0,-0.99998164,-0.00606647,-0.021523878,0.001388628,-0.02760601,-0.002325413,0.0015019322,0.0006703777,0.0,0.0,0.0,0.02986145
-0.02971056665608668,0.0021316998497640663,0.008260336917835759,0.029577335415476424,0.03077641658096871,-0.013989280264076687,0.0,0.0,0.0,0.008728614,-0.006066238,0.9999435,0.999962,5.295187e-05,-0.008728454,0.0,-0.99998164,-0.00606647,0.01438915,-0.016567882,-0.03957653,-0.0022418401,0.0014115832,0.00046914315,0.0,0.0,0.0,0.029792786
-0.0302434916185277,0.0019984686091538122,0.007860643196004996,0.029177641693645662,0.032375191468291764,-0.017852986241774057,0.0,0.0,0.0,0.008728614,-0.006066238,0.9999435,0.999962,5.295187e-05,-0.008728454,0.0,-0.99998164,-0.00606647,0.037134066,-0.009385277,0.04302311,-0.0020449606,0.0013575988,0.000681913,0.0,0.0,0.0,0.029838562
-0.027712098046932865,0.0029310872934255917,0.011191424211261349,0.029444104174866172,0.03384073511500456,-0.019318529888486854,0.0,0.0,0.0,0.008728614,-0.006066238,0.9999435,0.999962,5.295187e-05,-0.008728454,0.0,-0.99998164,-0.00606647,0.0036152378,0.006177034,0.05020523,-0.0020166596,0.0013816961,0.00092952955,0.0,0.0,0.0,0.030090332
-0.0305099540997482,-0.00013323124061025415,0.004263399699528133,0.028644716731204646,0.03037672285913795,-0.016254211354451008,0.0,0.0,0.0,0.008728614,-0.006066238,0.9999435,0.999962,5.295187e-05,-0.008728454,0.0,-0.99998164,-0.00606647,0.023965955,0.04209006,0.0059127808,-0.0018867466,0.0015852379,0.0009544458,0.0,0.0,0.0,0.03036499
-0.028111791768763626,0.0003996937218307625,0.008260336917835759,0.02997702913730719,0.03064318534035846,-0.015987748873230498,0.0,0.0,0.0,0.008728614,-0.006066238,0.9999435,0.999962,5.295187e-05,-0.008728454,0.0,-0.99998164,-0.00606647,-0.014341272,0.022936445,-0.03239441,-0.0019490193,0.001691994,0.0007877016,0.0,0.0,0.0,0.03037262
-0.029177641693645662,0.0006661562030512709,0.0074609494741742334,0.03064318534035846,0.0305099540997482,-0.017586523760553547,0.0,0.0,0.0,0.008728614,-0.006066238,0.9999435,0.999962,5.295187e-05,-0.008728454,0.0,-0.99998164,-0.00606647,-0.035889085,0.027724847,-0.009649277,-0.0021187195,0.0018221582,0.00073551666,0.0,0.0,0.0,0.030380249
-0.0305099540997482,0.0014655436467127959,0.007194486992953725,0.029843797896696934,0.03144257278401998,-0.018119448722994567,0.0,0.0,0.0,0.008728614,-0.006066238,0.9999435,0.999962,5.295187e-05,-0.008728454,0.0,-0.99998164,-0.00606647,-0.0550427,0.052863967,-0.03957653,-0.0023833395,0.0020773672,0.00053395645,0.0,0.0,0.0,0.029907227
-0.031042879062189218,-0.00159877488732305,0.007993874436615249,0.028245023009373885,0.03064318534035846,-0.018385911204215073,0.0,0.0,0.0,0.008728614,-0.006066238,0.9999435,0.999962,5.295187e-05,-0.008728454,0.0,-0.99998164,-0.00606647,-0.03828329,0.027724847,0.008307457,-0.002562839,0.0022056047,0.000572824,0.0,0.0,0.0,0.03025055
-0.03144257278401998,0.0018652373685435584,0.008127105677225504,0.0287779479718149,0.031042879062189218,-0.01732006127933304,0.0,0.0,0.0,0.008728614,-0.006066238,0.9999435,0.999962,5.295187e-05,-0.008728454,0.0,-0.99998164,-0.00606647,-0.02631228,-0.032130193,0.04302311,-0.0026815864,0.0020339256,0.0007850754,0.0,0.0,0.0,0.029899597
-0.028644716731204646,-0.0003996937218307625,0.009725880564548555,0.029843797896696934,0.03011026037791744,-0.01532159267017923,0.0,0.0,0.0,0.008728614,-0.006066238,0.9999435,0.999962,5.295187e-05,-0.008728454,0.0,-0.99998164,-0.00606647,-0.04187459,-0.027341787,0.017884254,-0.0028775514,0.0018870471,0.00087057136,0.0,0.0,0.0,0.030151367
-0.032108728987071254,0.0026646248122050836,0.0095926493239383,0.0302434916185277,0.0302434916185277,-0.017453292519943295,0.0,0.0,0.0,0.008728614,-0.006066238,0.9999435,0.999962,5.295187e-05,-0.008728454,0.0,-0.99998164,-0.00606647,0.008403644,-0.032130193,0.008307457,-0.0028211453,0.0017169609,0.0009077558,0.0,0.0,0.0,0.030441284
-0.02971056665608668,-0.000799387443661525,0.009725880564548555,0.03064318534035846,0.032241960227681506,-0.016254211354451008,0.0,0.0,0.0,0.008728614,-0.006066238,0.9999435,0.999962,5.295187e-05,-0.008728454,0.0,-0.99998164,-0.00606647,0.025163054,-0.005793974,-0.029999733,-0.0026812244,0.0016794063,0.0007532183,0.0,0.0,0.0,0.030303955
-0.03264165394951227,0.0018652373685435584,0.0074609494741742334,0.02997702913730719,0.03037672285913795,-0.01572128639200999,0.0,0.0,0.0,0.008728614,-0.006066238,0.9999435,0.999962,5.295187e-05,-0.008728454,0.0,-0.99998164,-0.00606647,0.05389347,-0.010582376,-0.04436493,-0.002398351,0.0016180973,0.0005276276,0.0,0.0,0.0,0.030227661
-0.03290811643073278,0.0006661562030512709,0.008260336917835759,0.028245023009373885,0.028378254249984136,-0.017719755001163805,0.0,0.0,0.0,0.008728614,-0.006066238,0.9999435,0.999962,5.295187e-05,-0.008728454,0.0,-0.99998164,-0.00606647,0.038331166,0.004979931,0.0035190582,-0.0021947036,0.0016349064,0.00054258475,0.0,0.0,0.0,0.02974701
-0.03064318534035846,-0.0010658499248820332,0.008926493120887028,0.029177641693645662,0.027712098046932865,-0.01705359879811253,0.0,0.0,0.0,0.008728614,-0.006066238,0.9999435,0.999962,5.295187e-05,-0.008728454,0.0,-0.99998164,-0.00606647,0.004812345,0.033710353,0.025066376,-0.0021596684,0.0017952836,0.00066520367,0.0,0.0,0.0,0.02985382
-0.03144257278401998,0.0006661562030512709,0.0075941807147844875,0.032241960227681506,0.029444104174866172,-0.016387442595061263,0.0,0.0,0.0,0.008728614,-0.006066238,0.9999435,0.999962,5.295187e-05,-0.008728454,0.0,-0.99998164,-0.00606647,-0.015538372,0.022936445,0.009504318,-0.002226562,0.0019009894,0.00070939923,0.0,0.0,0.0,0.029785156
-0.029444104174866172,0.00159877488732305,0.009326186842717792,0.029310872934255914,0.03130934154340973,-0.015987748873230498,0.0,0.0,0.0,0.008728614,-0.006066238,0.9999435,0.999962,5.295187e-05,-0.008728454,0.0,-0.99998164,-0.00606647,-0.022720978,-0.005793974,-0.004860878,-0.002329034,0.0018625146,0.00068154786,0.0,0.0,0.0,0.030189514
-0.03130934154340973,0.0029310872934255917,0.01052526800821008,0.03317457891195329,0.02971056665608668,-0.01692036755750228,0.0,0.0,0.0,0.008728614,-0.006066238,0.9999435,0.999962,5.295187e-05,-0.008728454,0.0,-0.99998164,-0.00606647,-0.023918077,-0.015370782,-0.025211334,-0.0024369792,0.0017763482,0.0005520835,0.0,0.0,0.0,0.030303955
-0.029444104174866172,0.0,0.004663093421358896,0.02997702913730719,0.0305099540997482,-0.01732006127933304,0.0,0.0,0.0,0.008728614,-0.006066238,0.9999435,0.999962,5.295187e-05,-0.008728454,0.0,-0.99998164,-0.00606647,-0.031100683,-0.026144687,-0.004860878,-0.0025802976,0.001636743,0.00052501867,0.0,0.0,0.0,0.030403137
-0.0305099540997482,0.002398162330984575,0.006928024511733216,0.031042879062189218,0.028644716731204646,-0.017852986241774057,0.0,0.0,0.0,0.008728614,-0.006066238,0.9999435,0.999962,5.295187e-05,-0.008728454,0.0,-0.99998164,-0.00606647,0.002418138,0.007374134,0.025066376,-0.0025553056,0.0016654299,0.0006477254,0.0,0.0,0.0,0.030891418
-0.028378254249984136,0.0019984686091538122,0.010392036767599824,0.02997702913730719,0.028644716731204646,-0.01732006127933304,0.0,0.0,0.0,0.008728614,-0.006066238,0.9999435,0.999962,5.295187e-05,-0.008728454,0.0,-0.99998164,-0.00606647,2.3938715e-05,0.05765237,0.021474838,-0.0025424093,0.0019453645,0.000751861,0.0,0.0,0.0,0.029800415
-0.02904441045303541,-0.0002664624812205083,0.009326186842717792,0.03037672285913795,0.03077641658096871,-0.018252679963604822,0.0,0.0,0.0,0.008728614,-0.006066238,0.9999435,0.999962,5.295187e-05,-0.008728454,0.0,-0.99998164,-0.00606647,0.0155862495,0.007374134,0.03703785,-0.002451766,0.0019725084,0.000933291,0.0,0.0,0.0,0.029838562
-0.03064318534035846,0.00159877488732305,0.008526799399056265,0.031042879062189218,0.031575804024630234,-0.016254211354451008,0.0,0.0,0.0,0.008728614,-0.006066238,0.9999435,0.999962,5.295187e-05,-0.008728454,0.0,-0.99998164,-0.00606647,0.0072065443,0.010965437,0.04182625,-0.0024034746,0.002017473,0.0011377558,0.0,0.0,0.0,0.02986908
-0.0287779479718149,-0.002398162330984575,0.006794793271122962,0.027845329287543123,0.031575804024630234,-0.018385911204215073,0.0,0.0,0.0,0.008728614,-0.006066238,0.9999435,0.999962,5.295187e-05,-0.008728454,0.0,-0.99998164,-0.00606647,-0.04307169,-0.026144687,0.023869514,-0.0026068157,0.0018766623,0.0012514147,0.0,0.0,0.0,0.030296326
-0.03077641658096871,-0.0005329249624410166,0.009326186842717792,0.031176110302799476,0.0305099540997482,-0.017719755001163805,0.0,0.0,0.0,0.008728614,-0.006066238,0.9999435,0.999962,5.295187e-05,-0.008728454,0.0,-0.99998164,-0.00606647,-0.049057193,0.012162536,-0.028802872,-0.0028390675,0.0019280916,0.0011011432,0.0,0.0,0.0,0.030395508
-0.02997702913730719,-0.0006661562030512709,0.0074609494741742334,0.029843797896696934,0.031176110302799476,-0.016787136316892024,0.0,0.0,0.0,0.008728614,-0.006066238,0.9999435,0.999962,5.295187e-05,-0.008728454,0.0,-0.99998164,-0.00606647,-0.045465894,-0.0010055713,-0.037182808,-0.0030522018,0.0019134233,0.0009097234,0.0,0.0,0.0,0.03037262
-0.02904441045303541,0.0033307810152563544,0.0073277182335639785,0.03130934154340973,0.029577335415476424,-0.015987748873230498,0.0,0.0,0.0,0.008728614,-0.006066238,0.9999435,0.999962,5.295187e-05,-0.008728454,0.0,-0.99998164,-0.00606647,-0.029903583,0.027724847,0.023869514,-0.003186459,0.0020424805,0.0010245224,0.0,0.0,0.0,0.030410767
-0.03064318534035846,0.0013323124061025418,0.008260336917835759,0.02997702913730719,0.03264165394951227,-0.014522205226517705,0.0,0.0,0.0,0.008728614,-0.006066238,0.9999435,0.999962,5.295187e-05,-0.008728454,0.0,-0.99998164,-0.00606647,-0.0538456,0.019345142,-0.024014473,-0.0034397545,0.0021289939,0.00089932734,0.0,0.0,0.0,0.029769897
-0.0305099540997482,-0.0006661562030512709,0.010791730489430587,0.031842266505850744,0.032375191468291764,-0.017986217482384312,0.0,0.0,0.0,0.008728614,-0.006066238,0.9999435,0.999962,5.295187e-05,-0.008728454,0.0,-0.99998164,-0.00606647,-0.061028205,0.008571234,-0.0012693405,-0.0037276968,0.002161205,0.00088848395,0.0,0.0,0.0,0.029708862
-0.029843797896696934,-0.002531393571594829,0.006661562030512709,0.028378254249984136,0.031975497746460996,-0.019318529888486854,0.0,0.0,0.0,0.008728614,-0.006066238,0.9999435,0.999962,5.295187e-05,-0.008728454,0.0,-0.99998164,-0.00606647,0.03473986,-0.014173683,0.017884254,-0.003535359,0.0020795306,0.0009734628,0.0,0.0,0.0,0.029792786
-0.028911179212425153,0.0018652373685435584,0.011058192970651094,0.030909647821578966,0.0302434916185277,-0.016254211354451008,0.0,0.0,0.0,0.008728614,-0.006066238,0.9999435,0.999962,5.295187e-05,-0.008728454,0.0,-0.99998164,-0.00606647,0.020374656,0.04209006,0.011898041,-0.003415809,0.0022795831,0.0010280857,0.0,0.0,0.0,0.029800415
-0.0305099540997482,-0.0014655436467127959,0.008260336917835759,0.02971056665608668,0.03077641658096871,-0.018385911204215073,0.0,0.0,0.0,0.008728614,-0.006066238,0.9999435,0.999962,5.295187e-05,-0.008728454,0.0,-0.99998164,-0.00606647,0.03473986,0.016950939,-0.009649277,-0.0032250306,0.00235294,0.00097469887,0.0,0.0,0.0,0.030426025
-0.02851148549059439,-0.0005329249624410166,0.009059724361497283,0.028378254249984136,0.029310872934255914,-0.017852986241774057,0.0,0.0,0.0,0.008728614,-0.006066238,0.9999435,0.999962,5.295187e-05,-0.008728454,0.0,-0.99998164,-0.00606647,0.025163054,-0.015370782,0.017884254,-0.0030830903,0.0022643213,0.0010592466,0.0,0.0,0.0,0.029815674
-0.02971056665608668,0.0033307810152563544,0.010658499248820334,0.02997702913730719,0.02997702913730719,-0.01705359879811253,0.0,0.0,0.0,0.008728614,-0.006066238,0.9999435,0.999962,5.295187e-05,-0.008728454,0.0,-0.99998164,-0.00606647,0.0012210384,0.043287158,-0.03239441,-0.0030615695,0.0024694356,0.0008919784,0.0,0.0,0.0,0.030273438
-0.03037672285913795,0.0014655436467127959,0.006794793271122962,0.03170903526524049,0.029444104174866172,-0.017586523760553547,0.0,0.0,0.0,0.008728614,-0.006066238,0.9999435,0.999962,5.295187e-05,-0.008728454,0.0,-0.99998164,-0.00606647,-0.0023702607,-0.011779476,0.0023212433,-0.003058113,0.002398191,0.0008991247,0.0,0.0,0.0,0.030448914
-0.031975497746460996,-0.0002664624812205083,0.010258805526989571,0.02971056665608668,0.030909647821578966,-0.016254211354451008,0.0,0.0,0.0,0.008728614,-0.006066238,0.9999435,0.999962,5.295187e-05,-0.008728454,0.0,-0.99998164,-0.00606647,-0.015538372,-0.014173683,0.0035190582,-0.0031205143,0.0023153317,0.0009122244,0.0,0.0,0.0,0.030303955
-0.028644716731204646,-0.0002664624812205083,0.009326186842717792,0.030909647821578966,0.027978560528153375,-0.017586523760553547,0.0,0.0,0.0,0.008728614,-0.006066238,0.9999435,0.999962,5.295187e-05,-0.008728454,0.0,-0.99998164,-0.00606647,-0.0035673603,0.0037828311,-0.037182808,-0.0031227486,0.0023226694,0.00072174927,0.0,0.0,0.0,0.03037262
-0.03037672285913795,0.0018652373685435584,0.008793261880276773,0.032108728987071254,0.03170903526524049,-0.016254211354451008,0.0,0.0,0.0,0.008728614,-0.006066238,0.9999435,0.999962,5.295187e-05,-0.008728454,0.0,-0.99998164,-0.00606647,-0.011947073,-0.002202671,-0.004860878,-0.0031668702,0.0023000427,0.00069383613,0.0,0.0,0.0,0.030082703
-0.033041347671343035,0.002797856052815337,0.006128637068071691,0.030909647821578966,0.03130934154340973,-0.015854517632620246,0.0,0.0,0.0,0.008728614,-0.006066238,0.9999435,0.999962,5.295187e-05,-0.008728454,0.0,-0.99998164,-0.00606647,0.01438915,0.006177034,-0.040774345,-0.00307909,0.0023194277,0.00048649524,0.0,0.0,0.0,0.029884338
-0.029843797896696934,0.002531393571594829,0.008393568158446012,0.030909647821578966,0.03290811643073278,-0.017453292519943295,0.0,0.0,0.0,0.008728614,-0.006066238,0.9999435,0.999962,5.295187e-05,-0.008728454,0.0,-0.99998164,-0.00606647,0.0119949505,-0.033327293,-0.047956467,-0.0030037197,0.0021411942,0.00024428044,0.0,0.0,0.0,0.029716492
-0.028644716731204646,0.00159877488732305,0.008127105677225504,0.031575804024630234,0.029843797896696934,-0.017719755001163805,0.0,0.0,0.0,0.008728614,-0.006066238,0.9999435,0.999962,5.295187e-05,-0.008728454,0.0,-0.99998164,-0.00606647,0.002418138,-0.002202671,0.0035190582,-0.0029766106,0.0021194748,0.00026065434,0.0,0.0,0.0,0.030181885
-0.031842266505850744,0.0019984686091538122,0.0073277182335639785,0.02904441045303541,0.03170903526524049,-0.017986217482384312,0.0,0.0,0.0,0.008728614,-0.006066238,0.9999435,0.999962,5.295187e-05,-0.008728454,0.0,-0.99998164,-0.00606647,-0.057436902,0.019345142,0.014292717,-0.003248912,0.0022056033,0.00033081466,0.0,0.0,0.0,0.030395508
-0.02971056665608668,0.00013323124061025415,0.006661562030512709,0.0305099540997482,0.031042879062189218,-0.016787136316892024,0.0,0.0,0.0,0.008728614,-0.006066238,0.9999435,0.999962,5.295187e-05,-0.008728454,0.0,-0.99998164,-0.00606647,0.004812345,0.0037828311,0.0023212433,-0.0032086058,0.0022134895,0.00034076683,0.0,0.0,0.0,0.030342102
-0.03011026037791744,0.0014655436467127959,0.0095926493239383,0.0302434916185277,0.031176110302799476,-0.014788667707738212,0.0,0.0,0.0,0.008728614,-0.006066238,0.9999435,0.999962,5.295187e-05,-0.008728454,0.0,-0.99998164,-0.00606647,-0.032297783,-0.016567882,0.089710236,-0.0033540518,0.0021195826,0.00078761415,0.0,0.0,0.0,0.030853271
-0.028644716731204646,-0.0011990811654922875,0.012390505376753637,0.031842266505850744,0.031042879062189218,-0.01572128639200999,0.0,0.0,0.0,0.008728614,-0.006066238,0.9999435,0.999962,5.295187e-05,-0.008728454,0.0,-0.99998164,-0.00606647,-0.0562398,-0.012976583,0.021474838,-0.0036184806,0.0020441017,0.0008910503,0.0,0.0,0.0,0.029891968
-0.02971056665608668,0.0011990811654922875,0.00866003063966652,0.02997702913730719,0.03064318534035846,-0.01345635530163567,0.0,0.0,0.0,0.008728614,-0.006066238,0.9999435,0.999962,5.295187e-05,-0.008728454,0.0,-0.99998164,-0.00606647,-0.008355767,-0.018962082,-7.247925e-05,-0.0036421672,0.0019390708,0.00088623265,0.0,0.0,0.0,0.029579163
-0.028378254249984136,-0.000799387443661525,0.007727411955394742,0.02904441045303541,0.02904441045303541,-0.015987748873230498,0.0,0.0,0.0,0.008728614,-0.006066238,0.9999435,0.999962,5.295187e-05,-0.008728454,0.0,-0.99998164,-0.00606647,-0.017932575,0.006177034,-0.016832352,-0.0037136192,0.0019602606,0.0007976397,0.0,0.0,0.0,0.02949524
-0.03011026037791744,0.0011990811654922875,0.010791730489430587,0.03064318534035846,0.02997702913730719,-0.014921898948348467,0.0,0.0,0.0,0.008728614,-0.006066238,0.9999435,0.999962,5.295187e-05,-0.008728454,0.0,-0.99998164,-0.00606647,-0.023918077,0.026527748,-0.02760601,-0.0038146416,0.002083098,0.00065562146,0.0,0.0,0.0,0.02986145
-0.033041347671343035,0.002398162330984575,0.00866003063966652,0.0302434916185277,0.03384073511500456,-0.015854517632620246,0.0,0.0,0.0,0.008728614,-0.006066238,0.9999435,0.999962,5.295187e-05,-0.008728454,0.0,-0.99998164,-0.00606647,-0.007158667,0.012162536,-7.247925e-05,-0.0038313617,0.0021334952,0.000651981,0.0,0.0,0.0,0.030075073
-0.032508422708902016,0.0002664624812205083,0.009326186842717792,0.028245023009373885,0.03064318534035846,-0.014921898948348467,0.0,0.0,0.0,0.008728614,-0.006066238,0.9999435,0.999962,5.295187e-05,-0.008728454,0.0,-0.99998164,-0.00606647,0.0072065443,-0.0369186,-0.050351143,-0.0037761722,0.0019382348,0.00039696536,0.0,0.0,0.0,0.029945374
-0.02571362943777905,-0.0039969372183076245,0.008926493120887028,0.023448698347404734,0.03477335379927634,-0.014921898948348467,0.0,0.0,0.0,0.008728614,-0.006066238,0.9999435,0.999962,5.295187e-05,-0.008728454,0.0,-0.99998164,-0.00606647,0.0119949505,-0.005793974,-0.057533264,-0.0036973164,0.0018995738,0.000107314234,0.0,0.0,0.0,0.029930115
-0.031842266505850744,-0.0021316998497640663,0.00866003063966652,0.031176110302799476,0.02997702913730719,-0.01705359879811253,0.0,0.0,0.0,0.008728614,-0.006066238,0.9999435,0.999962,5.295187e-05,-0.008728454,0.0,-0.99998164,-0.00606647,0.08262389,0.012162536,-0.02760601,-0.0032657105,0.0019508887,-3.125239e-05,0.0,0.0,0.0,0.029579163
-0.03037672285913795,0.0002664624812205083,0.008393568158446012,0.03064318534035846,0.03077641658096871,-0.017453292519943295,0.0,0.0,0.0,0.008728614,-0.006066238,0.9999435,0.999962,5.295187e-05,-0.008728454,0.0,-0.99998164,-0.00606647,0.020374656,0.020542242,-0.040774345,-0.0031475087,0.0020438454,-0.00023496785,0.0,0.0,0.0,0.029556274
-0.02851148549059439,0.0002664624812205083,0.0075941807147844875,0.02717917308449185,0.032375191468291764,-0.016120980113840753,0.0,0.0,0.0,0.008728614,-0.006066238,0.9999435,0.999962,5.295187e-05,-0.008728454,0.0,-0.99998164,-0.00606647,-0.033494886,-0.0381157,0.03703785,-0.0032992456,0.0018430477,-4.8603775e-05,0.0,0.0,0.0,0.029426575
-0.027712098046932865,-0.0018652373685435584,0.005595712105630674,0.025180704475338038,0.03437366007744557,-0.016387442595061263,0.0,0.0,0.0,0.008728614,-0.006066238,0.9999435,0.999962,5.295187e-05,-0.008728454,0.0,-0.99998164,-0.00606647,0.0060094446,0.07082048,-0.015634537,-0.003252702,0.002187935,-0.00012653344,0.0,0.0,0.0,0.029846191
-0.031176110302799476,-0.001732006127933304,0.005595712105630674,0.029444104174866172,0.029310872934255914,-0.016387442595061263,0.0,0.0,0.0,0.008728614,-0.006066238,0.9999435,0.999962,5.295187e-05,-0.008728454,0.0,-0.99998164,-0.00606647,2.3938715e-05,0.036104552,0.01668644,-0.003236319,0.0023575178,-4.246857e-05,0.0,0.0,0.0,0.03049469
-0.027578866806322613,0.0021316998497640663,0.00866003063966652,0.03130934154340973,0.032108728987071254,-0.015454823910789483,0.0,0.0,0.0,0.008728614,-0.006066238,0.9999435,0.999962,5.295187e-05,-0.008728454,0.0,-0.99998164,-0.00606647,-0.062225305,-0.033327293,-0.045562744,-0.003531264,0.002179094,-0.00027006993,0.0,0.0,0.0,0.030082703
-0.02851148549059439,0.0006661562030512709,0.012257274136143382,0.03077641658096871,0.031842266505850744,-0.015854517632620246,0.0,0.0,0.0,0.008728614,-0.006066238,0.9999435,0.999962,5.295187e-05,-0.008728454,0.0,-0.99998164,-0.00606647,0.03473986,0.0025857314,-0.016832352,-0.0033399083,0.002181127,-0.00035288132,0.0,0.0,0.0,0.030097961
-0.032241960227681506,-0.0003996937218307625,0.010125574286379316,0.03077641658096871,0.028644716731204646,-0.01505513018895872,0.0,0.0,0.0,0.008728614,-0.006066238,0.9999435,0.999962,5.295187e-05,-0.008728454,0.0,-0.99998164,-0.00606647,0.0945949,-0.032130193,-0.079081535,-0.0028502343,0.0020095704,-0.0007465246,0.0,0.0,0.0,0.02961731
-0.03170903526524049,0.003464012255866608,0.006928024511733216,0.03011026037791744,0.031176110302799476,-0.0191852986478766,0.0,0.0,0.0,0.008728614,-0.006066238,0.9999435,0.999962,5.295187e-05,-0.008728454,0.0,-0.99998164,-0.00606647,0.106565915,-0.044101205,-0.037182808,-0.0023031537,0.0017790166,-0.000928706,0.0031464393,0.0,0.0,0.029525757
-0.02904441045303541,-0.0018652373685435584,0.008926493120887028,0.029444104174866172,0.03370750387439431,-0.017986217482384312,0.0,0.0,0.0,0.008728614,-0.006066238,0.9999435,0.999962,5.295187e-05,-0.008728454,0.0,-0.99998164,-0.00606647,0.03234566,-0.002202671,-0.0144376755,-0.0021299096,0.0017591082,-0.0009962509,0.0031464393,0.0,0.0,0.029525757
-0.02971056665608668,0.003863705977697371,0.0073277182335639785,0.03170903526524049,0.03011026037791744,-0.017186830038722786,0.0,0.0,0.0,0.008728614,-0.006066238,0.9999435,0.999962,5.295187e-05,-0.008728454,0.0,-0.99998164,-0.00606647,-0.13285425,0.07800308,-0.045562744,-0.0027835313,0.002140328,-0.0012190833,-0.0008268631,0.0,0.0,0.029907227
-0.03064318534035846,0.0013323124061025418,0.01052526800821008,0.032774885190122525,0.02851148549059439,-0.0191852986478766,0.0,0.0,0.0,0.008728614,-0.006066238,0.9999435,0.999962,5.295187e-05,-0.008728454,0.0,-0.99998164,-0.00606647,-0.12567165,0.04089296,0.029854774,-0.0033979719,0.0023340913,-0.001063714,-0.0045978185,0.0,0.0,0.030006409
-0.032108728987071254,0.002797856052815337,0.01052526800821008,0.028111791768763626,0.027845329287543123,-0.017453292519943295,0.0,0.0,0.0,0.008728614,-0.006066238,0.9999435,0.999962,5.295187e-05,-0.008728454,0.0,-0.99998164,-0.00606647,-0.021523878,-0.008188177,0.025066376,-0.0034886014,0.00228148,-0.0009330636,-0.0045978185,0.0,0.0,0.030044556
-0.031575804024630234,0.0037304747370871167,0.010924961730040842,0.029177641693645662,0.028245023009373885,-0.01345635530163567,0.0,0.0,0.0,0.008728614,-0.006066238,0.9999435,0.999962,5.295187e-05,-0.008728454,0.0,-0.99998164,-0.00606647,0.11853693,0.022936445,-0.018029213,-0.0028784738,0.0023847548,-0.0010185444,-0.0010472815,0.0,0.0,0.029953003
-0.03130934154340973,0.0011990811654922875,0.00866003063966652,0.0334410413931738,0.032508422708902016,-0.01945176112909711,0.0,0.0,0.0,0.008728614,-0.006066238,0.9999435,0.999962,5.295187e-05,-0.008728454,0.0,-0.99998164,-0.00606647,0.08142679,0.024133546,-0.012043953,-0.0024569475,0.0024934988,-0.0010736715,-0.0010472815,0.0,0.0,0.029586792
-0.0302434916185277,-0.0011990811654922875,0.008260336917835759,0.029177641693645662,0.03130934154340973,-0.018918836166656093,0.0,0.0,0.0,0.008728614,-0.006066238,0.9999435,0.999962,5.295187e-05,-0.008728454,0.0,-0.99998164,-0.00606647,-0.005961567,-0.021356288,0.05379677,-0.0024744708,0.00237425,-0.0007993193,-0.0010472815,0.0,0.0,0.02947998
-0.029843797896696934,0.0011990811654922875,0.008793261880276773,0.031176110302799476,0.031042879062189218,-0.017986217482384312,0.0,0.0,0.0,0.008728614,-0.006066238,0.9999435,0.999962,5.295187e-05,-0.008728454,0.0,-0.99998164,-0.00606647,-0.076590516,-0.033327293,-0.010846138,-0.002845051,0.0021957422,-0.0008495534,-0.0010472815,0.0,0.0,0.030044556
-0.0302434916185277,0.002398162330984575,0.008526799399056265,0.03037672285913795,0.03170903526524049,-0.014122511504686942,0.0,0.0,0.0,0.008728614,-0.006066238,0.9999435,0.999962,5.295187e-05,-0.008728454,0.0,-0.99998164,-0.00606647,-0.051451396,0.054061066,-0.019226074,-0.0030880827,0.0024550688,-0.000941436,-0.0010472815,0.0,0.0,0.029846191
-0.031176110302799476,0.0018652373685435584,0.008260336917835759,0.0334410413931738,0.031975497746460996,-0.014122511504686942,0.0,0.0,0.0,0.008728614,-0.006066238,0.9999435,0.999962,5.295187e-05,-0.008728454,0.0,-0.99998164,-0.00606647,-0.033494886,-0.020159189,0.04421997,-0.0032401166,0.0023419976,-0.00071562896,-0.0010472815,0.0,0.0,0.030067444
-0.029444104174866172,0.0003996937218307625,0.0074609494741742334,0.02971056665608668,0.03037672285913795,-0.016787136316892024,0.0,0.0,0.0,0.008728614,-0.006066238,0.9999435,0.999962,5.295187e-05,-0.008728454,0.0,-0.99998164,-0.00606647,0.06706158,0.008571234,0.009504318,-0.0028886083,0.0023731438,-0.0006645292,-0.0010472815,0.0,0.0,0.02998352
-0.029577335415476424,0.000799387443661525,0.0095926493239383,0.031975497746460996,0.03170903526524049,-0.016653905076281773,0.0,0.0,0.0,0.008728614,-0.006066238,0.9999435,0.999962,5.295187e-05,-0.008728454,0.0,-0.99998164,-0.00606647,0.107763015,-0.0369186,-0.015634537,-0.0023353503,0.002176685,-0.0007393792,0.0021780778,0.0,0.0,0.029930115
-0.0287779479718149,-0.0002664624812205083,0.006528330789902454,0.03064318534035846,0.030909647821578966,-0.01692036755750228,0.0,0.0,0.0,0.008728614,-0.006066238,0.9999435,0.999962,5.295187e-05,-0.008728454,0.0,-0.99998164,-0.00606647,0.010797843,-0.042904098,-0.02760601,-0.0022696843,0.0019512811,-0.00087371236,0.0021780778,0.0,0.0,0.02949524
-0.032375191468291764,-0.0010658499248820332,0.00866003063966652,0.027578866806322613,0.0302434916185277,-0.01945176112909711,0.0,0.0,0.0,0.008728614,-0.006066238,0.9999435,0.999962,5.295187e-05,-0.008728454,0.0,-0.99998164,-0.00606647,-0.021523878,-0.011779476,0.0023212433,-0.0023659554,0.0018826273,-0.0008577376,0.0021780778,0.0,0.0,0.029426575
-0.03064318534035846,0.003464012255866608,0.010392036767599824,0.03037672285913795,0.030909647821578966,-0.015188361429568975,0.0,0.0,0.0,0.008728614,-0.006066238,0.9999435,0.999962,5.295187e-05,-0.008728454,0.0,-0.99998164,-0.00606647,-0.029903583,0.051666863,-0.031197548,-0.0025036437,0.0021315485,-0.0010094367,0.0021780778,0.0,0.0,0.029541016
-0.03530627876171736,0.0014655436467127959,0.00866003063966652,0.0305099540997482,0.029310872934255914,-0.016520673835671518,0.0,0.0,0.0,0.008728614,-0.006066238,0.9999435,0.999962,5.295187e-05,-0.008728454,0.0,-0.99998164,-0.00606647,-0.07419632,-0.002202671,-0.0060577393,-0.0028621072,0.0021098773,-0.0010346782,0.0021780778,0.0,0.0,0.029762268
-0.0287779479718149,0.0035972434964768626,0.010924961730040842,0.030909647821578966,0.0287779479718149,-0.01705359879811253,0.0,0.0,0.0,0.008728614,-0.006066238,0.9999435,0.999962,5.295187e-05,-0.008728454,0.0,-0.99998164,-0.00606647,0.040725365,-0.015370782,-0.035985947,-0.0026441698,0.002022474,-0.0012094346,0.0021780778,0.0,0.0,0.030052185
-0.031176110302799476,0.005062787143189658,0.009326186842717792,0.03170903526524049,0.029444104174866172,-0.014921898948348467,0.0,0.0,0.0,0.008728614,-0.006066238,0.9999435,0.999962,5.295187e-05,-0.008728454,0.0,-0.99998164,-0.00606647,0.0933978,-0.018962082,-0.04436493,-0.0021639601,0.0019175514,-0.001425212,0.0021780778,0.0,0.0,0.029960632
-0.035173047521107094,0.007194486992953725,0.01212404289553313,0.03357427263378405,0.025447166956558548,-0.017586523760553547,0.0,0.0,0.0,0.008728614,-0.006066238,0.9999435,0.999962,5.295187e-05,-0.008728454,0.0,-0.99998164,-0.00606647,0.04910507,-0.10275914,0.35426903,-0.0019076149,0.001394168,0.00035325915,0.0021780778,-0.0030967605,0.01067629,0.030136108
-0.035705972483548114,-0.0014655436467127959,0.008926493120887028,0.03743797861148142,0.03077641658096871,-0.017586523760553547,0.0,0.0,0.0,0.008728614,-0.006066238,0.9999435,0.999962,5.295187e-05,-0.008728454,0.0,-0.99998164,-0.00606647,-0.033494886,-0.014173683,-0.22393036,-0.0020655512,0.0013163288,-0.0007681588,0.0021780778,-0.0030967605,0.003946693,0.030052185
-0.02717917308449185,0.003464012255866608,0.005462480865020421,0.029444104174866172,0.026646248122050836,-0.015454823910789483,0.0,0.0,0.0,0.008728614,-0.006066238,0.9999435,0.999962,5.295187e-05,-0.008728454,0.0,-0.99998164,-0.00606647,-0.02631228,0.008571234,0.17111301,-0.002186785,0.0013526033,9.124703e-05,0.0021780778,-0.0030967605,0.009011989,0.02960205
-0.0334410413931738,0.000799387443661525,0.007061255752343471,0.03410719759622506,0.02624655440022007,-0.01505513018895872,0.0,0.0,0.0,0.008728614,-0.006066238,0.9999435,0.999962,5.295187e-05,-0.008728454,0.0,-0.99998164,-0.00606647,-0.13524845,-0.016567882,-0.20118523,-0.0028520932,0.0012630009,-0.00091513526,-0.0018038845,-0.0030967605,0.0030887276,0.029441833
-0.031575804024630234,0.0014655436467127959,0.009459418083328047,0.03077641658096871,0.03077641658096871,-0.015188361429568975,0.0,0.0,0.0,0.008728614,-0.006066238,0.9999435,0.999962,5.295187e-05,-0.008728454,0.0,-0.99998164,-0.00606647,0.037134066,0.012162536,0.10407543,-0.0026521625,0.0013174986,-0.00039018248,-0.0018038845,-0.0030967605,0.006192601,0.029823303
-0.031176110302799476,0.0011990811654922875,0.007993874436615249,0.0302434916185277,0.02997702913730719,-0.016387442595061263,0.0,0.0,0.0,0.008728614,-0.006066238,0.9999435,0.999962,5.295187e-05,-0.008728454,0.0,-0.99998164,-0.00606647,0.040725365,0.026527748,-0.02162075,-0.0024352747,0.0014435499,-0.0004963353,-0.0018038845,-0.0030967605,0.006192601,0.029975891
-0.03503981628049684,0.001732006127933304,0.007993874436615249,0.032108728987071254,0.03064318534035846,-0.018252679963604822,0.0,0.0,0.0,0.008728614,-0.006066238,0.9999435,0.999962,5.295187e-05,-0.008728454,0.0,-0.99998164,-0.00606647,0.0036152378,-0.011779476,0.04421997,-0.002405022,0.0013774347,-0.0002727538,-0.0018038845,-0.0030967605,0.006192601,0.029975891
-0.028378254249984136,0.002264931090374321,0.008127105677225504,0.02744563556571236,0.029177641693645662,-0.017586523760553547,0.0,0.0,0.0,0.008728614,-0.006066238,0.9999435,0.999962,5.295187e-05,-0.008728454,0.0,-0.99998164,-0.00606647,-0.011947073,0.020542242,0.11724377,-0.0024527323,0.0014732588,0.00031482882,-0.0018038845,-0.0030967605,0.009716926,0.030059814
-0.03064318534035846,0.0019984686091538122,0.008127105677225504,0.029577335415476424,0.027312404325102103,-0.016653905076281773,0.0,0.0,0.0,0.008728614,-0.006066238,0.9999435,0.999962,5.295187e-05,-0.008728454,0.0,-0.99998164,-0.00606647,-0.08856152,0.020542242,-0.0144376755,-0.0028832762,0.0015686038,0.0002410663,-0.0018038845,-0.0030967605,0.009716926,0.029464722
-0.03130934154340973,-0.00013323124061025415,0.0095926493239383,0.032241960227681506,0.033307810152563545,-0.018785604926045835,0.0,0.0,0.0,0.008728614,-0.006066238,0.9999435,0.999962,5.295187e-05,-0.008728454,0.0,-0.99998164,-0.00606647,-0.034691986,0.03011905,-0.024014473,-0.0030423198,0.001711356,0.0001197886,-0.0018038845,-0.0030967605,0.009716926,0.029541016
-0.03037672285913795,-0.00013323124061025415,0.011324655451871604,0.027845329287543123,0.028111791768763626,-0.016387442595061263,0.0,0.0,0.0,0.008728614,-0.006066238,0.9999435,0.999962,5.295187e-05,-0.008728454,0.0,-0.99998164,-0.00606647,0.022768855,-0.032130193,-0.016832352,-0.002913264,0.0015421483,3.50279e-05,-0.0018038845,-0.0030967605,0.009716926,0.029441833
-0.03384073511500456,-0.0011990811654922875,0.007993874436615249,0.0334410413931738,0.02851148549059439,-0.016520673835671518,0.0,0.0,0.0,0.008728614,-0.006066238,0.9999435,0.999962,5.295187e-05,-0.008728454,0.0,-0.99998164,-0.00606647,0.01319205,0.03011905,-0.03239441,-0.0028327375,0.0016850327,-0.00012711927,-0.0018038845,-0.0030967605,0.009716926,0.02985382
-0.024114854550456002,0.004396630940138387,0.005329249624410167,0.022649310903743208,0.03437366007744557,-0.01705359879811253,0.0,0.0,0.0,0.008728614,-0.006066238,0.9999435,0.999962,5.295187e-05,-0.008728454,0.0,-0.99998164,-0.00606647,0.01438915,-0.034524392,0.025066376,-0.002746628,0.0015039856,-1.1517986e-06,-0.0018038845,-0.0030967605,0.009716926,0.030509949
-0.0383705972957532,-0.013056661579804908,0.010125574286379316,0.036105666205378875,0.02744563556571236,-0.017186830038722786,0.0,0.0,0.0,0.008728614,-0.006066238,0.9999435,0.999962,5.295187e-05,-0.008728454,0.0,-0.99998164,-0.00606647,0.027557261,0.06004657,-0.18562317,-0.0025951085,0.0017966984,-0.00092926185,-0.0018038845,-0.0030967605,0.0041187177,0.030158997
-0.026779479362661087,-0.008793261880276773,0.005462480865020421,0.023315467106794475,0.0369050536490404,-0.01572128639200999,0.0,0.0,0.0,0.008728614,-0.006066238,0.9999435,0.999962,5.295187e-05,-0.008728454,0.0,-0.99998164,-0.00606647,-0.035889085,0.051666863,0.07534504,-0.0027615784,0.002046049,-0.0005478903,-0.0018038845,-0.0030967605,0.0041187177,0.030044556
-0.03290811643073278,0.0013323124061025418,0.005595712105630674,0.03064318534035846,0.03064318534035846,-0.018652373685435583,0.0,0.0,0.0,0.008728614,-0.006066238,0.9999435,0.999962,5.295187e-05,-0.008728454,0.0,-0.99998164,-0.00606647,0.027557261,0.021739345,-0.010846138,-0.0026099843,0.0021445155,-0.0005993816,-0.0018038845,-0.0030967605,0.0041187177,0.029571533
-0.027312404325102103,-0.0009326186842717792,0.004929555902579405,0.0287779479718149,0.027978560528153375,-0.017719755001163805,0.0,0.0,0.0,0.008728614,-0.006066238,0.9999435,0.999962,5.295187e-05,-0.008728454,0.0,-0.99998164,-0.00606647,0.004812345,-0.0357215,0.068161964,-0.0025728727,0.0019551856,-0.00025557488,-0.0018038845,-0.0030967605,0.0041187177,0.029449463
-0.03397396635561481,0.0002664624812205083,0.00866003063966652,0.03530627876171736,0.03397396635561481,-0.017186830038722786,0.0,0.0,0.0,0.008728614,-0.006066238,0.9999435,0.999962,5.295187e-05,-0.008728454,0.0,-0.99998164,-0.00606647,0.06347028,-0.06684612,-0.3125162,-0.002242657,0.0016111791,-0.0018168781,-0.0018038845,-0.0030967605,-0.005096638,0.02948761
-0.035173047521107094,0.0014655436467127959,0.0073277182335639785,0.036771822408430146,0.03011026037791744,-0.01692036755750228,0.0,0.0,0.0,0.008728614,-0.006066238,0.9999435,0.999962,5.295187e-05,-0.008728454,0.0,-0.99998164,-0.00606647,0.037134066,-0.041706998,-0.10900879,-0.0020457732,0.0013945882,-0.0023528377,-0.0018038845,-0.0030967605,-0.008346809,0.029815674
-0.03037672285913795,0.0014655436467127959,0.009192955602107537,0.03011026037791744,0.03011026037791744,-0.017719755001163805,0.0,0.0,0.0,0.008728614,-0.006066238,0.9999435,0.999962,5.295187e-05,-0.008728454,0.0,-0.99998164,-0.00606647,0.041922465,-0.014173683,0.13041115,-0.001825932,0.0013167468,-0.0016890178,-0.0018038845,-0.0030967605,-0.0044415984,0.029945374
-0.03130934154340973,0.002264931090374321,0.007993874436615249,0.02971056665608668,0.03011026037791744,-0.017852986241774057,0.0,0.0,0.0,0.008728614,-0.006066238,0.9999435,0.999962,5.295187e-05,-0.008728454,0.0,-0.99998164,-0.00606647,-0.02870648,-0.016567882,0.09210396,-0.0019603346,0.0012273237,-0.0012200528,-0.0018038845,-0.0030967605,-0.0044415984,0.029960632
-0.027578866806322613,-0.00013323124061025415,0.01212404289553313,0.03144257278401998,0.032241960227681506,-0.014921898948348467,0.0,0.0,0.0,0.008728614,-0.006066238,0.9999435,0.999962,5.295187e-05,-0.008728454,0.0,-0.99998164,-0.00606647,-0.02870648,-0.023750488,-0.016832352,-0.0020940653,0.0011024346,-0.0012981143,-0.0018038845,-0.0030967605,-0.0044415984,0.029960632
-0.03264165394951227,0.0019984686091538122,0.006794793271122962,0.030909647821578966,0.03130934154340973,-0.0127901990985844,0.0,0.0,0.0,0.008728614,-0.006066238,0.9999435,0.999962,5.295187e-05,-0.008728454,0.0,-0.99998164,-0.00606647,-0.045465894,-0.0369186,0.05499363,-0.0023109245,0.0009123294,-0.0010166556,-0.0018038845,-0.0030967605,-0.0044415984,0.029762268
-0.030909647821578966,0.0010658499248820332,0.00985911180515881,0.032108728987071254,0.02971056665608668,-0.017586523760553547,0.0,0.0,0.0,0.008728614,-0.006066238,0.9999435,0.999962,5.295187e-05,-0.008728454,0.0,-0.99998164,-0.00606647,-0.0035673603,-0.042904098,-0.049153328,-0.0023172065,0.0006932473,-0.0012573389,-0.0018038845,-0.0030967605,-0.0044415984,0.029815674
-0.03077641658096871,0.0026646248122050836,0.0063950995492922,0.033041347671343035,0.027712098046932865,-0.018252679963604822,0.0,0.0,0.0,0.008728614,-0.006066238,0.9999435,0.999962,5.295187e-05,-0.008728454,0.0,-0.99998164,-0.00606647,0.038331166,-0.016567882,-0.0060577393,-0.0021139644,0.0006069417,-0.001281341,-0.0018038845,-0.0030967605,-0.0044415984,0.03037262
-0.029577335415476424,0.0011990811654922875,0.010791730489430587,0.031575804024630234,0.031575804024630234,-0.02011791733214838,0.0,0.0,0.0,0.008728614,-0.006066238,0.9999435,0.999962,5.295187e-05,-0.008728454,0.0,-0.99998164,-0.00606647,-0.04187459,0.048075564,0.014292717,-0.0023127676,0.0008442848,-0.0012034706,-0.0018038845,-0.0030967605,-0.0044415984,0.03011322
-0.028644716731204646,0.0013323124061025418,0.007061255752343471,0.031042879062189218,0.029310872934255914,-0.015454823910789483,0.0,0.0,0.0,0.008728614,-0.006066238,0.9999435,0.999962,5.295187e-05,-0.008728454,0.0,-0.99998164,-0.00606647,-0.058634,0.022936445,-0.03239441,-0.002594374,0.00095474557,-0.0013594253,-0.0018038845,-0.0030967605,-0.0044415984,0.030334473
-0.02997702913730719,0.000799387443661525,0.007727411955394742,0.03077641658096871,0.03037672285913795,-0.016387442595061263,0.0,0.0,0.0,0.008728614,-0.006066238,0.9999435,0.999962,5.295187e-05,-0.008728454,0.0,-0.99998164,-0.00606647,0.03473986,0.01335964,-7.247925e-05,-0.0024077026,0.00101677,-0.0013529905,-0.0018038845,-0.0030967605,-0.0044415984,0.030380249
-0.0302434916185277,-0.0002664624812205083,0.008793261880276773,0.03317457891195329,0.02904441045303541,-0.017719755001163805,0.0,0.0,0.0,0.008728614,-0.006066238,0.9999435,0.999962,5.295187e-05,-0.008728454,0.0,-0.99998164,-0.00606647,0.0119949505,0.006177034,0.0107011795,-0.0023356893,0.0010425714,-0.0012927197,-0.0018038845,-0.0030967605,-0.0044415984,0.030403137
-0.029310872934255914,0.0013323124061025418,0.007061255752343471,0.031042879062189218,0.029843797896696934,-0.017986217482384312,0.0,0.0,0.0,0.008728614,-0.006066238,0.9999435,0.999962,5.295187e-05,-0.008728454,0.0,-0.99998164,-0.00606647,-0.031100683,-0.021356288,-0.025211334,-0.0024795143,0.0009305771,-0.0014123127,-0.0018038845,-0.0030967605,-0.0044415984,0.02985382
-0.028911179212425153,0.0011990811654922875,0.008393568158446012,0.029310872934255914,0.031176110302799476,-0.01732006127933304,0.0,0.0,0.0,0.008728614,-0.006066238,0.9999435,0.999962,5.295187e-05,-0.008728454,0.0,-0.99998164,-0.00606647,-0.019129675,-0.028538894,0.0047159195,-0.0025627653,0.00078322977,-0.0013816716,-0.0018038845,-0.0030967605,-0.0044415984,0.029754639
-0.029310872934255914,0.0018652373685435584,0.008793261880276773,0.0287779479718149,0.029177641693645662,-0.016120980113840753,0.0,0.0,0.0,0.008728614,-0.006066238,0.9999435,0.999962,5.295187e-05,-0.008728454,0.0,-0.99998164,-0.00606647,0.0012210384,0.008571234,-0.010846138,-0.0025438461,0.00082216976,-0.001428994,-0.0018038845,-0.0030967605,-0.0044415984,0.029815674
-0.031042879062189218,-0.0011990811654922875,0.009725880564548555,0.03077641658096871,0.03130934154340973,-0.016387442595061263,0.0,0.0,0.0,0.008728614,-0.006066238,0.9999435,0.999962,5.295187e-05,-0.008728454,0.0,-0.99998164,-0.00606647,-0.029903583,0.001388628,0.05499363,-0.0026806449,0.00082500203,-0.0011468809,-0.0018038845,-0.0030967605,-0.0044415984,0.030059814
-0.027312404325102103,0.0009326186842717792,0.006661562030512709,0.03264165394951227,0.032108728987071254,-0.018119448722994567,0.0,0.0,0.0,0.008728614,-0.006066238,0.9999435,0.999962,5.295187e-05,-0.008728454,0.0,-0.99998164,-0.00606647,0.010797843,-0.002202671,-0.007255554,-0.0026132525,0.0008098637,-0.0011774243,-0.0018038845,-0.0030967605,-0.0044415984,0.03037262
-0.028911179212425153,0.0003996937218307625,0.01052526800821008,0.02971056665608668,0.029577335415476424,-0.01851914244482533,0.0,0.0,0.0,0.008728614,-0.006066238,0.9999435,0.999962,5.295187e-05,-0.008728454,0.0,-0.99998164,-0.00606647,0.0155862495,-0.027341787,-0.043168068,-0.002522255,0.00066910544,-0.0013873775,-0.0018038845,-0.0030967605,-0.0044415984,0.03024292
-0.02851148549059439,0.0009326186842717792,0.012656967857974145,0.031042879062189218,0.0305099540997482,-0.014655436467127957,0.0,0.0,0.0,0.008728614,-0.006066238,0.9999435,0.999962,5.295187e-05,-0.008728454,0.0,-0.99998164,-0.00606647,0.035936967,-0.008188177,-7.247925e-05,-0.002329959,0.000624819,-0.0013808031,-0.0018038845,-0.0030967605,-0.0044415984,0.030273438
-0.033041347671343035,0.0019984686091538122,0.005062787143189658,0.0302434916185277,0.032375191468291764,-0.015854517632620246,0.0,0.0,0.0,0.008728614,-0.006066238,0.9999435,0.999962,5.295187e-05,-0.008728454,0.0,-0.99998164,-0.00606647,0.010797843,-0.008188177,-0.009649277,-0.0022643202,0.0005807541,-0.0014221454,-0.0018038845,-0.0030967605,-0.0044415984,0.030288696
-0.032108728987071254,0.0010658499248820332,0.0075941807147844875,0.033307810152563545,0.03317457891195329,-0.016787136316892024,0.0,0.0,0.0,0.008728614,-0.006066238,0.9999435,0.999962,5.295187e-05,-0.008728454,0.0,-0.99998164,-0.00606647,-0.021523878,0.020542242,0.007109642,-0.002360618,0.0006805615,-0.0013794864,-0.0018038845,-0.0030967605,-0.0044415984,0.029830933
-0.028245023009373885,0.00013323124061025415,0.0127901990985844,0.02851148549059439,0.03144257278401998,-0.015588055151399738,0.0,0.0,0.0,0.008728614,-0.006066238,0.9999435,0.999962,5.295187e-05,-0.008728454,0.0,-0.99998164,-0.00606647,-0.064619504,-0.006991077,-0.0060577393,-0.0026719123,0.0006422033,-0.0014028777,-0.0018038845,-0.0030967605,-0.0044415984,0.029708862
-0.032108728987071254,0.0,0.01052526800821008,0.02997702913730719,0.0305099540997482,-0.015454823910789483,0.0,0.0,0.0,0.008728614,-0.006066238,0.9999435,0.999962,5.295187e-05,-0.008728454,0.0,-0.99998164,-0.00606647,-0.007158667,0.008571234,-0.0060577393,-0.002694346,0.00068184844,-0.0014261521,-0.0018038845,-0.0030967605,-0.0044415984,0.029838562
-0.031042879062189218,0.0006661562030512709,0.0074609494741742334,0.03170903526524049,0.029177641693645662,-0.015454823910789483,0.0,0.0,0.0,0.008728614,-0.006066238,0.9999435,0.999962,5.295187e-05,-0.008728454,0.0,-0.99998164,-0.00606647,0.03114856,-0.017764982,-0.010846138,-0.0025251315,0.0005896143,-0.001473252,-0.0018038845,-0.0030967605,-0.0044415984,0.029716492
-0.02997702913730719,-0.0006661562030512709,0.009992343045769061,0.02624655440022007,0.02904441045303541,-0.018918836166656093,0.0,0.0,0.0,0.008728614,-0.006066238,0.9999435,0.999962,5.295187e-05,-0.008728454,0.0,-0.99998164,-0.00606647,0.0072065443,0.03011905,0.03224945,-0.002476473,0.00073726155,-0.0013046385,-0.0018038845,-0.0030967605,-0.0044415984,0.029876709
-0.02997702913730719,0.002398162330984575,0.008127105677225504,0.03317457891195329,0.03130934154340973,-0.013856049023466432,0.0,0.0,0.0,0.008728614,-0.006066238,0.9999435,0.999962,5.295187e-05,-0.008728454,0.0,-0.99998164,-0.00606647,0.02995146,0.052863967,-0.05513954,-0.0023143333,0.0009978951,-0.0015738129,-0.0018038845,-0.0030967605,-0.0044415984,0.030044556
-0.03264165394951227,-0.0019984686091538122,0.008393568158446012,0.031042879062189218,0.0302434916185277,-0.015588055151399738,0.0,0.0,0.0,0.008728614,-0.006066238,0.9999435,0.999962,5.295187e-05,-0.008728454,0.0,-0.99998164,-0.00606647,-0.03828329,-0.022553388,0.020277977,-0.002494178,0.0008801388,-0.001464554,-0.0018038845,-0.0030967605,-0.0044415984,0.03035736
-0.031975497746460996,0.000799387443661525,0.0073277182335639785,0.03410719759622506,0.03144257278401998,-0.018119448722994567,0.0,0.0,0.0,0.008728614,-0.006066238,0.9999435,0.999962,5.295187e-05,-0.008728454,0.0,-0.99998164,-0.00606647,-0.047860093,-0.018962082,-0.17245483,-0.0027210077,0.0007809277,-0.0023195054,-0.0018038845,-0.0030967605,-0.009659767,0.030258179
-0.037304747370871166,0.002797856052815337,0.007993874436615249,0.03703828488965066,0.027845329287543123,-0.017586523760553547,0.0,0.0,0.0,0.008728614,-0.006066238,0.9999435,0.999962,5.295187e-05,-0.008728454,0.0,-0.99998164,-0.00606647,-0.031100683,0.0037828311,0.06935978,-0.002862906,0.00079593726,-0.001961109,-0.0018038845,-0.0030967605,-0.009659767,0.030319214
-0.031176110302799476,0.0035972434964768626,0.008393568158446012,0.031042879062189218,0.03170903526524049,-0.017586523760553547,0.0,0.0,0.0,0.008728614,-0.006066238,0.9999435,0.999962,5.295187e-05,-0.008728454,0.0,-0.99998164,-0.00606647,-0.03828329,-0.0033997744,0.007109642,-0.003040008,0.00077495875,-0.0019157552,-0.0018038845,-0.0030967605,-0.009659767,0.030006409
-0.0302434916185277,0.00013323124061025415,0.008393568158446012,0.028111791768763626,0.029843797896696934,-0.01692036755750228,0.0,0.0,0.0,0.008728614,-0.006066238,0.9999435,0.999962,5.295187e-05,-0.008728454,0.0,-0.99998164,-0.00606647,0.025163054,0.00019152835,0.040628433,-0.0028989927,0.0007720416,-0.0017030343,-0.0018038845,-0.0030967605,-0.009659767,0.02973938
-0.02904441045303541,0.0019984686091538122,0.005995405827461438,0.02717917308449185,0.03037672285913795,-0.014522205226517705,0.0,0.0,0.0,0.008728614,-0.006066238,0.9999435,0.999962,5.295187e-05,-0.008728454,0.0,-0.99998164,-0.00606647,0.05269637,0.016950939,-0.057533264,-0.002621016,0.00085293606,-0.0019821853,-0.0018038845,-0.0030967605,-0.009659767,0.030349731
-0.035705972483548114,0.000799387443661525,0.009326186842717792,0.037304747370871166,0.0305099540997482,-0.01505513018895872,0.0,0.0,0.0,0.008728614,-0.006066238,0.9999435,0.999962,5.295187e-05,-0.008728454,0.0,-0.99998164,-0.00606647,-0.008355767,0.0025857314,-0.0707016,-0.0026496898,0.00086160004,-0.0023257823,-0.0018038845,-0.0030967605,-0.009659767,0.030136108
-0.036372128686599385,0.002264931090374321,0.009326186842717792,0.036638591167819895,0.02851148549059439,-0.015987748873230498,0.0,0.0,0.0,0.008728614,-0.006066238,0.9999435,0.999962,5.295187e-05,-0.008728454,0.0,-0.99998164,-0.00606647,-0.010749966,0.010965437,0.08013344,-0.0026901911,0.0009121192,-0.0019134862,-0.0018038845,-0.0030967605,-0.009659767,0.030380249
-0.03797090357392244,0.004663093421358896,0.007860643196004996,0.053558958725322174,0.02011791733214838,-0.017719755001163805,0.0,0.0,0.0,0.008728614,-0.006066238,0.9999435,0.999962,5.295187e-05,-0.008728454,0.0,-0.99998164,-0.00606647,-0.007158667,-0.071634516,0.031051636,-0.0027125336,0.0005493861,-0.0017486605,-0.0018038845,-0.0030967605,-0.009659767,0.03024292
-0.05102756515372735,0.018918836166656093,0.004529862180748642,0.04023583466429676,0.0191852986478766,-0.020384379813368887,0.0,0.0,0.0,0.008728614,-0.006066238,0.9999435,0.999962,5.295187e-05,-0.008728454,0.0,-0.99998164,-0.00606647,-0.077787615,0.09236829,0.27765465,-0.003087909,0.0010084806,-0.000351644,-0.0018038845,-0.0030967605,-0.0012584431,0.030258179
-0.012923430339194655,-0.000799387443661525,0.0030643185340358454,0.05275957128166065,0.028911179212425153,-0.02145022973825092,0.0,0.0,0.0,0.008728614,-0.006066238,0.9999435,0.999962,5.295187e-05,-0.008728454,0.0,-0.99998164,-0.00606647,0.026360154,-0.005793974,-0.11619091,-0.0029406687,0.00097446825,-0.0009308403,-0.0018038845,-0.0030967605,-0.004714775,0.02974701
-0.06088667695888615,-0.01438897398590745,0.011591117933092112,0.031842266505850744,0.014788667707738212,-0.014788667707738212,0.0,0.0,0.0,0.008728614,-0.006066238,0.9999435,0.999962,5.295187e-05,-0.008728454,0.0,-0.99998164,-0.00606647,0.059878983,-0.41280827,0.046614647,-0.0026265706,-0.0010944454,-0.00069311296,-0.0018038845,-0.015433262,-0.004714775,0.029884338
-0.040502297145517265,0.005595712105630674,0.0063950995492922,0.03357427263378405,0.0383705972957532,-0.018252679963604822,0.0,0.0,0.0,0.008728614,-0.006066238,0.9999435,0.999962,5.295187e-05,-0.008728454,0.0,-0.99998164,-0.00606647,0.01678335,0.07321468,-0.07309532,-0.002529521,-0.00072289974,-0.001055124,-0.0018038845,-0.015433262,-0.004714775,0.029777527
-0.044232771882604376,0.0014655436467127959,0.007993874436615249,0.05182695259738887,0.029577335415476424,-0.01705359879811253,0.0,0.0,0.0,0.008728614,-0.006066238,0.9999435,0.999962,5.295187e-05,-0.008728454,0.0,-0.99998164,-0.00606647,2.3938715e-05,0.001388628,0.04182625,-0.0025167537,-0.0007123421,-0.00084071717,-0.0018038845,-0.015433262,-0.004714775,0.030158997
-0.0528928025222709,0.016387442595061263,-0.0511607963943376,0.0415681470703993,0.009059724361497283,-0.08939816244948055,0.0,0.0,-0.07379212,0.0087421555,-0.0060467534,0.9999435,0.99995935,0.0022851133,-0.0087284325,0.0022322056,-0.99997914,-0.0060664546,0.047787294,-0.19510955,-0.28139114,-0.0022652335,-0.0016843281,-0.0022434692,-0.0018038845,-0.021335434,-0.013227012,0.03025055
-0.0415681470703993,0.03130934154340973,-0.03770444109270193,0.027312404325102103,-0.0095926493239383,-0.04716385917602997,0.0,0.031365965,-0.045946788,0.007797744,-0.0060345503,0.99995184,0.99996305,0.003680926,-0.0077755544,0.0036338281,-0.99997497,-0.006064321,0.108876124,0.2201757,0.10759258,-0.0017095269,-0.000575028,-0.001694289,0.0015037993,-0.014646442,-0.009958323,0.030380249
-0.07274425737319877,0.01945176112909711,-0.02398162330984575,0.057955589665460557,0.013989280264076687,-0.05395865244715294,-0.035593383,0.0,-0.04248278,0.007805493,-0.0071003893,0.99994534,0.9999575,0.0049733953,-0.0077715875,0.004917945,-0.99996245,-0.0071401894,-0.35207674,0.09320474,0.096876144,-0.0034613628,-0.00010612924,-0.0012014369,-0.009138658,-0.014646442,-0.009958323,0.030227661
-0.07767381327577817,0.08100459429103453,-0.07087902000465522,0.07034609504221419,-0.05489127113142472,-0.09699234316426504,-0.044253416,0.0788629,-0.08744832,0.0054339855,-0.008421017,0.99995446,0.9999565,0.007634355,-0.005374524,0.0075855767,-0.99993545,-0.008469737,0.06529802,-0.0003709793,0.06447315,-0.003117566,-0.000107453496,-0.0008730639,-0.009138658,-0.014646442,-0.009958323,0.030311584
-0.07074578876404496,0.06861408891428089,-0.0383705972957532,0.06475038293658353,-0.031042879062189218,-0.0656830016208553,-0.037991546,0.060743455,-0.05553944,0.003635986,-0.009545285,0.99995476,0.99995047,0.009297139,-0.0035539058,0.009257592,-0.99991125,-0.009589222,-0.10662341,-0.08851399,0.07404804,-0.0036350952,-0.0005494862,-0.0004984584,-0.012319334,-0.014646442,-0.009958323,0.029830933
-0.0750091884635731,-0.020251148572758632,-0.04809647786030175,0.07420980101991156,0.05955436455278361,-0.07101225124526546,-0.044852957,-0.028987788,-0.063067004,0.0045175087,-0.010874688,0.99993885,0.9999279,0.011180715,-0.0044050575,0.011128055,-0.9998783,-0.010933364,-0.06659533,0.18071005,0.18671608,-0.0039498964,0.00035681145,0.00043761428,-0.012319334,-0.009262586,-0.004395531,0.029792786
-0.03357427263378405,0.06408422673353224,-0.06421745797414251,0.009059724361497283,-0.041168453348568536,-0.08393568158446013,0.0,0.06354131,-0.077589214,0.0026334273,-0.010864154,0.9999475,0.9999056,0.01351221,-0.0024956283,0.013480337,-0.9998496,-0.010912084,0.43502107,-0.12943295,0.19980812,-0.0017550415,-0.00029213732,0.0014344668,0.0007539997,-0.013152329,0.0016091396,0.030052185
-0.006661562030512709,0.04210107203284032,-0.11684379801519292,0.013323124061025418,-0.000799387443661525,-0.14722052087433085,0.0,0.0323652,-0.13554479,0.001695896,-0.010853321,0.99995005,0.99984354,0.017625412,-0.0015134324,0.017604036,-0.9997857,-0.01089875,-0.46402627,-0.35697865,1.1191587,-0.0040663974,-0.00207557,0.0070230877,-0.013329073,-0.023986535,0.035575308,0.030349731
-0.1596110262510845,-0.12803522222645425,-0.10298774899172647,0.14668759591188982,0.15921133252925374,-0.14349004613724373,-0.12339277,-0.13270831,-0.12675154,0.005763062,-0.014589668,0.9999026,0.9997544,0.021475088,-0.005472383,0.021403968,-0.9996627,-0.014711656,-0.12318528,-0.00046385825,1.2716131,-0.0046619917,-0.0020675114,0.013346038,-0.017065834,-0.023986535,0.07414902,0.030334473
0.08939816244948055,-0.0095926493239383,-0.0305099540997482,-0.1229724350832646,0.023182235866184224,-0.026379785640830326,0.13594183,0.0,-0.03195751,0.0057772407,-0.010450374,0.9999629,0.9997331,0.022424066,-0.0055611604,0.022375293,-0.99969375,-0.01057886,0.13167085,0.29663873,0.3720522,-0.0039803274,-0.0005739804,0.015139569,-0.013061622,-0.014965524,0.08546341,0.030410767
0.1898545178696122,0.22342879050339623,0.016653905076281773,-0.17986217482384312,-0.20317764193063761,0.02904441045303541,0.2146149,0.22421819,0.0,-0.0009162808,-0.004043537,1.0000685,0.9997489,0.022387955,0.000987129,0.022445621,-0.99973994,-0.0040238854,0.09076567,-0.2129618,0.48244095,-0.0035065976,-0.0016359194,0.017476074,-0.013061622,-0.021323247,0.099866115,0.02985382
-0.08646707515605495,0.26926033727332366,0.10751761117247512,0.11604441057153138,-0.23648545208320115,0.07780704451638844,-0.071499206,0.26378787,0.08914968,-0.008798627,-0.00617468,1.0000527,0.99976575,0.01972573,0.008903655,0.01981778,-0.9997857,-0.0059800614,-0.1490376,-0.058697104,0.3760414,-0.0042342525,-0.0019212253,0.0192689,-0.01750869,-0.021323247,0.11108665,0.029838562
-0.2851148549059439,0.3150918840432511,-0.06941347635794241,0.2732572744916313,-0.29364165430500017,-0.11844257290251595,-0.24942952,0.31528175,-0.09744067,-0.018203128,-0.01365473,0.99992377,0.9995747,0.02256951,0.018469552,0.02278475,-0.9996527,-0.01324537,-0.029313594,0.29287356,0.06714058,-0.004359649,-0.00044725148,0.019508258,-0.01750869,-0.012570914,0.11108665,0.029884338
-0.16027718245413575,0.46644257337649986,0.049828483988235056,0.13736140906917205,-0.44032925021689,0.0255803981971688,-0.11906276,0.4643009,0.034191802,-0.03220126,-0.017221982,0.9996202,0.9992403,0.02147169,0.03252645,0.021940336,-0.99962294,-0.016511653,0.19838557,-0.17332974,0.08061981,-0.003345923,-0.0013116639,0.019813815,-0.011533148,-0.017791752,0.11108665,0.03012085
-0.022782542144353463,0.4222098014938955,0.012390505376753637,0.013589586542245924,-0.36984992393406557,0.01532159267017923,0.0,0.40694484,0.0,-0.044565856,-0.017221982,0.9992219,0.99876153,0.021470048,0.044882912,0.022144573,-0.99962294,-0.016240265,0.024863392,-0.014115348,-0.20552921,-0.0032048766,-0.0013756824,0.018687101,-0.011533148,-0.017791752,0.10483949,0.030395508
-0.09526033703633173,0.002797856052815337,0.3432036758120147,0.13802756527222332,0.0656830016208553,0.3106952531031127,-0.08688741,-0.020527601,0.32343683,-0.044103496,-0.01946256,0.9992039,0.99895364,0.011352487,0.044303928,0.012128681,-0.99974704,-0.018941013,-0.30965686,-0.22279406,-0.036577225,-0.0047371364,-0.0024827742,0.01841078,-0.021115426,-0.024686076,0.10483949,0.030944824
-0.17226799410905863,-0.16733843820647926,0.2912434919740156,0.21077182264542207,0.2328882085867243,0.22462787166888853,-0.16176337,-0.18919836,0.25442302,-0.038524657,-0.024020687,0.9993614,0.9992478,0.0034331875,0.038630284,0.0043118256,-0.9997048,-0.023910357,-0.2767744,-0.32223377,-1.5858316,-0.0060973223,-0.004081529,0.010389567,-0.029502785,-0.034451034,0.056782518,0.030303955
0.18865543670411988,-0.20557580426162217,0.049029096544573526,-0.18972128662900192,0.24541194520408816,0.03397396635561481,0.2189449,-0.21457891,0.037988894,-0.032146733,-0.017441466,0.9997654,0.99947816,0.0025519237,0.032202702,0.003024153,-0.9998441,-0.017399859,0.16916919,0.3230289,-0.42106247,-0.00522099,-0.0024459772,0.008232307,-0.024449857,-0.024802458,0.04420577,0.02986908
-0.02424808579106626,-0.19958039843416073,-0.007860643196004996,0.049961715228845315,0.22516079663132954,-0.03037672285913795,0.0,-0.20145564,-0.022631325,-0.026139077,-0.017463125,0.9999582,0.9996513,0.0032252455,0.02620804,0.0035934271,-0.9998419,-0.017417993,0.112038895,0.28371757,-0.5460825,-0.0046346905,-0.0010151594,0.0054607326,-0.02111447,-0.016356215,0.02794895,0.029769897
-0.0018652373685435584,-0.1781301686959098,0.10498621760088028,0.003863705977697371,0.20357733565246838,0.0912633998180241,0.026892066,-0.17993878,0.09461217,-0.020830369,-0.016588738,1.0001123,0.99978256,0.00042989067,0.020848813,0.00068322505,-0.99986136,-0.016636517,-0.008294359,-0.380086,-0.94249773,-0.0046529886,-0.0029105134,0.00072094053,-0.02111447,-0.027674235,-0.0001163017,0.029777527
0.3987611031464907,-0.04636447173236845,0.21556814730739124,-0.39809494694343944,0.08087136305042428,0.23115620245879098,0.42818457,-0.052702945,0.21984954,-0.019370925,-0.0037138704,1.0003562,0.9997971,-0.0058428757,0.019275518,-0.005881213,-0.9999751,-0.0039017433,-0.112280294,0.063024774,-0.31978512,-0.005191125,-0.0025808369,-0.0008815897,-0.024454473,-0.027674235,-0.0096289525,0.02974701
0.33694180750333275,-0.08566768771239343,-0.1055191425633213,-0.3833062792357012,0.12310566632387485,-0.08193721297530632,0.3898806,-0.09347171,-0.09724082,-0.0165837,0.007811281,1.000453,0.99985904,-0.0027328562,0.016568072,-0.00300447,-0.9999659,0.007690704,-0.07367313,0.30268583,-0.20692348,-0.005533535,-0.0010545036,-0.0019117992,-0.024454473,-0.018686403,-0.015773255,0.029693604
0.32588361453268166,-0.10445329263843926,-0.17053598798112535,-0.32255283351742536,0.1328315468884234,-0.16613935704098695,0.35397476,-0.10772745,-0.17185031,-0.013408678,0.018290445,1.0004238,0.9999072,0.002567776,0.013383517,0.0021463772,-0.9998311,0.018258136,-0.19175082,-0.21926442,-0.3838339,-0.0064646215,-0.002145553,-0.0038214095,-0.03017458,-0.025227264,-0.027223378,0.029830933
0.17746401249285856,0.08060490056920376,-0.09312863718656766,-0.19771516106561718,-0.0860673814342242,-0.0750091884635731,0.21734613,0.09425111,-0.08758155,-0.016280228,0.024766548,1.0002669,0.99985504,0.0052772616,0.016188804,0.004716949,-0.99968207,0.024770996,0.18219617,0.3550911,-0.4805975,-0.005521318,-0.0003593699,-0.0062052896,-0.024718646,-0.014593928,-0.04161505,0.029945374
-0.023049004625573973,0.22982389005268844,0.07087902000465522,0.05702297098118878,-0.21316998497640668,0.03464012255866608,0.0,0.2324119,0.049246933,-0.023311082,0.024790924,1.0001519,0.9997224,0.0037801187,0.023253223,0.0030451263,-0.9996877,0.02480429,-0.1896939,0.07475227,-0.13121605,-0.006442181,1.6188278e-05,-0.0068303435,-0.030485936,-0.014593928,-0.04560443,0.030403137
0.03930321598002497,0.2665957124611186,0.20864012279565802,-0.012523736617363892,-0.24527871396347792,0.20131240456209404,0.055670016,0.2668522,0.20146362,-0.031247634,0.02662052,0.99992156,0.99950653,-0.0022839864,0.031329684,-0.0032586262,-0.9996431,0.026514843,0.058205962,-0.29589453,-0.16507721,-0.00611894,-0.0014633653,-0.007621578,-0.030485936,-0.023560703,-0.05060692,0.030303955
-0.16081010741657678,0.23568606463953962,0.15015160816775644,0.19118683027571473,-0.18972128662900192,0.08646707515605495,-0.14624193,0.22361864,0.1147967,-0.037914198,0.022308746,0.99982804,0.9992575,-0.0058906316,0.038074605,-0.006906536,-0.99973255,0.02207348,-0.37439144,-0.23232979,0.45585442,-0.007960303,-0.0026176972,-0.005304198,-0.041802913,-0.03058349,-0.03682751,0.030227661
-0.07847320071943971,0.2740566619352928,-0.08566768771239343,-0.005196018383799912,-0.2679280248672211,-0.09019754989314206,0.0,0.28190732,-0.09144526,-0.046582434,0.022202887,0.9995017,0.9989054,-0.0031004949,0.046673737,-0.0043051806,-0.9997484,0.022013955,-0.10201445,-0.01830244,-0.3816023,-0.008430573,-0.0026961209,-0.0071856882,-0.044917703,-0.03058349,-0.04847891,0.030532837
0.3069647783660256,0.30616539092236406,-0.040502297145517265,-0.31695712141179466,-0.2535390508813137,-0.008526799399056265,0.34171748,0.2907672,-0.02802719,-0.055186093,0.03225397,0.99887747,0.9984691,-0.0018022243,0.055283092,-0.0036663413,-0.999479,0.03206749,-0.26116928,0.14112136,0.047735214,-0.009694267,-0.0019770334,-0.0069110836,-0.05263291,-0.026414622,-0.04847891,0.029541016
0.2162343035104425,0.17053598798112535,0.009725880564548555,-0.17999540606445338,-0.13589586542245924,0.013856049023466432,0.22787139,0.1641309,0.0,-0.060016736,0.0389606,0.998394,0.99819,-0.0014310275,0.060123153,-0.0038213362,-0.9992413,0.03875956,-0.2576239,-0.021597445,-0.06766701,-0.010933915,-0.0020751357,-0.0072148633,-0.060223725,-0.026414622,-0.04847891,0.029464722
-0.3168238901711844,0.23208882114306276,0.1337641655726952,0.35452833126388633,-0.20450995433674016,0.07913935692249098,-0.30591956,0.22921436,0.10293912,-0.06665518,0.03012501,0.9983398,0.99774957,-0.0050077983,0.06686375,-0.0071203685,-0.9995333,0.029706664,0.14749867,0.19600722,-0.45504475,-0.010141753,-0.001084724,-0.009454013,-0.055868715,-0.02062736,-0.06191445,0.029525757
-0.28031853024397474,0.35985758088829645,0.06914701387672191,0.25167381351277013,-0.33374425772868666,0.022649310903743208,-0.23623961,0.3577159,0.042385522,-0.07712649,0.023267966,0.99784756,0.9969832,-0.006716691,0.07732724,-0.008679526,-0.9997051,0.022682648,-0.13986123,-0.29235348,-0.29144287,-0.01079035,-0.0025410678,-0.010863957,-0.059984352,-0.029230323,-0.07049061,0.029426575
0.08553445647178318,0.4755022977379971,0.08580091895300368,-0.08953139369009079,-0.43899693781078747,0.09566003075816248,0.11728946,0.4681646,0.08721783,-0.09088102,0.026927851,0.9966991,0.9957969,-0.009018979,0.09114411,-0.011571842,-0.99959415,0.026029635,-0.14178216,0.347801,0.19523811,-0.011445309,-0.00078935747,-0.009833447,-0.064177066,-0.018945314,-0.06471712,0.029571533
0.07261102613258852,0.3040336910726,0.036505359927209644,-0.06581623286146555,-0.2538055133625342,0.03424042883683532,0.09897017,0.2898346,0.031860255,-0.09936745,0.029919669,0.9958445,0.9949733,-0.009687642,0.09967073,-0.012732447,-0.99950284,0.028845627,-0.49471498,-0.13256265,0.58113766,-0.013861658,-0.001448224,-0.006878591,-0.0787537,-0.022851236,-0.047594063,0.029464722
-0.003863705977697371,0.2137029099388477,0.035705972483548114,0.010258805526989571,-0.18319295583909948,0.022516079663132953,0.022695282,0.2093629,0.025598384,-0.105546705,0.030667646,0.9952054,0.99432564,-0.010377796,0.1058718,-0.013673182,-0.999473,0.02944109,0.10862553,-0.17753571,-0.100302696,-0.013249222,-0.0023286613,-0.007345712,-0.075522415,-0.028132392,-0.050577767,0.02974701
-0.013589586542245924,0.21663399723227325,0.06768147023000912,0.011591117933092112,-0.1775972437334688,0.053692189965932426,0.0,0.20803058,0.05717419,-0.11170954,0.030848812,0.99454623,0.99362576,-0.012084268,0.11207943,-0.015572586,-0.9994477,0.029355643,-0.14291036,-0.14084299,0.05520916,-0.013897528,-0.0030212328,-0.0070329374,-0.079812825,-0.032360733,-0.050577767,0.030021667
0.05222664631921963,0.20757427287077598,0.08899846872764978,-0.05062787143189658,-0.16986983177807405,0.08753292508093698,0.0811838,0.19963703,0.08475305,-0.11756788,0.03354602,0.9938046,0.99290574,-0.014329846,0.11803736,-0.01828038,-0.99933064,0.03168851,-0.009299159,0.023064882,0.122870445,-0.013874535,-0.0028908022,-0.0063834204,-0.079812825,-0.032360733,-0.04690399,0.029899597
-0.0063950995492922,0.07767381327577817,0.10138897410440342,0.03370750387439431,-0.03464012255866608,0.07900612568188072,0.0,0.06707194,0.086684905,-0.119478315,0.033851437,0.99356824,0.99262595,-0.01690912,0.12003249,-0.020940058,-0.99927956,0.031651657,-0.42921567,0.13047636,0.026815414,-0.015951242,-0.0022239666,-0.0062174266,-0.09267567,-0.028450582,-0.04690399,0.029968262
-0.14815313955860265,-0.09192955602107537,0.06488361417719378,0.14815313955860265,0.13149923448232087,0.022116385941302188,-0.1183966,-0.10079943,0.03998736,-0.11647047,0.03050718,0.9940439,0.99295866,-0.018506324,0.11700756,-0.022029448,-0.99935937,0.028208155,-0.36264706,0.036978275,-0.11748505,-0.01768472,-0.0020279556,-0.0067737647,-0.10342184,-0.028450582,-0.050385375,0.029632568
-0.13642879038490024,-0.215967841029222,0.0656830016208553,0.15161715181446922,0.26206585028036994,0.018918836166656093,-0.11426643,-0.22810188,0.038788278,-0.10960165,0.02722029,0.9949496,0.99371624,-0.020069435,0.11011535,-0.023003584,-0.9994248,0.0249181,-0.18922877,0.03753996,0.20125294,-0.01854244,-0.001830116,-0.005733631,-0.10912446,-0.028450582,-0.044320393,0.030136108
-0.2351531396770986,-0.3807748856641064,-0.008393568158446012,0.22196324685668345,0.4119509959669059,-0.07794027575699868,-0.19880167,-0.38544795,-0.04667956,-0.09833058,0.021236848,0.9963549,0.9949296,-0.019345853,0.09869666,-0.021344326,-0.9995855,0.019320413,-0.12686855,0.17466024,0.025923729,-0.019084072,-0.00094766426,-0.0055753444,-0.11286551,-0.02330027,-0.044320393,0.02948761
-0.11524502312786984,-0.41261715216995715,-0.003863705977697371,0.10751761117247512,0.4336676881863773,-0.045565084288706925,-0.081624776,-0.41222745,-0.028227037,-0.08608677,0.018726058,0.99761677,0.9960843,-0.018746512,0.08639874,-0.020264164,-0.9996476,0.017147237,-0.21443504,-0.06752341,0.1858635,-0.020060828,-0.0012805429,-0.00461815,-0.11926721,-0.02330027,-0.03877166,0.02985382
0.06115313944010666,-0.32162021483315356,0.17080245046234582,-0.03450689131805583,0.35439510002327607,0.15135068933324874,0.077586554,-0.32709268,0.15756394,-0.0761967,0.021458391,0.9984189,0.99678665,-0.023258021,0.0766516,-0.024826426,-0.9994982,0.019675702,-0.12659949,-0.079902396,-0.21154022,-0.020593522,-0.0016736522,-0.0056527606,-0.12306987,-0.02330027,-0.04512568,0.030036926
-0.16120980113840752,-0.32135375235193303,0.20237825448697608,0.21450229738250923,0.3541286375420556,0.14015926512198737,-0.1580995,-0.3268262,0.16775613,-0.066282205,0.017098809,0.99926925,0.9973587,-0.028645622,0.06674656,-0.029671432,-0.9994446,0.015170359,-0.23770034,0.009227529,0.0035419464,-0.021679057,-0.0016191463,-0.0056067873,-0.13021328,-0.02330027,-0.04512568,0.030052185
-0.3952970908906241,-0.40369065904907014,0.10032312417952138,0.40608882138005464,0.4339341506675978,0.008526799399056265,-0.37093642,-0.4078974,0.05091232,-0.054047305,0.0060973465,1.000269,0.9980496,-0.030905664,0.054238416,-0.031008396,-0.9995093,0.0044281287,-0.12407455,0.18987027,-0.17296219,-0.022191035,-0.0006616993,-0.0064435643,-0.13392968,-0.017613085,-0.050306417,0.029953003
-0.27432312441651335,-0.43166921957722354,0.05995405827461438,0.25993415043060586,0.46404441104551525,-0.014122511504686942,-0.2373721,-0.43694183,0.0,-0.04104276,-0.00096747465,1.0010148,0.99866754,-0.031286012,0.041040856,-0.03095014,-0.9995184,-0.0022281357,-0.22560313,-0.11707365,-0.08623409,-0.023208095,-0.0012437591,-0.0068425173,-0.14064242,-0.021096569,-0.050306417,0.029754639
-0.00479632466196915,-0.3671852991218605,0.11298009203749554,0.01572128639200999,0.3834395104763115,0.08913169996826004,0.0,-0.36439744,0.097543254,-0.03030334,-0.0008495754,1.0014553,0.9989566,-0.03415268,0.030321982,-0.033845123,-0.9994253,-0.0018959923,0.0007094443,0.15481463,-0.019530296,-0.023088507,-0.00046346715,-0.006905956,-0.14064242,-0.01653736,-0.050306417,0.029449463
-0.17626493132736626,-0.26033384415243666,0.09912404301402909,0.20304441069002732,0.2873797859963182,0.036238897445989134,-0.15989813,-0.26294184,0.064168826,-0.022556206,-0.0055044563,1.0016857,0.99909353,-0.036180448,0.022431133,-0.03574656,-0.9993408,-0.0063365926,-0.14374876,0.067011096,-0.19636154,-0.023691809,-0.00012609435,-0.007853234,-0.14487246,-0.01653736,-0.056084663,0.029426575
-0.21690045971349378,-0.2258269528343808,0.07434303226052183,0.21556814730739124,0.25580398197168797,0.019318529888486854,-0.18647775,-0.2299005,0.04331814,-0.015677815,-0.01106025,1.0018101,0.9991749,-0.03759856,0.015361304,-0.037083898,-0.9992441,-0.011662632,-0.22659539,-0.073815845,-0.46562004,-0.024706326,-0.0004945431,-0.010142067,-0.15164757,-0.01653736,-0.07000651,0.029899597
-0.10525268008210079,-0.29071056701157455,0.05222664631921963,0.10365390519477774,0.3372082699845533,0.0035972434964768626,-0.07469676,-0.30304444,0.024399303,-0.0065900628,-0.013290802,1.0019276,0.99924475,-0.038361736,0.006204987,-0.037920173,-0.9991887,-0.0135621745,-0.25371403,0.18787675,0.27194405,-0.025851365,0.0004473133,-0.008731637,-0.15924901,-0.010908455,-0.061858896,0.029960632
-0.10538591132271104,-0.4528529868342539,-0.05222664631921963,0.10165543658562393,0.473370597888233,-0.10845022985674689,-0.07376414,-0.4521968,-0.083851084,0.007315547,-0.0155704925,1.0019889,0.999329,-0.03580685,-0.007715221,-0.03554262,-0.9992511,-0.015293699,-0.1501888,-0.0527751,-0.18110657,-0.026473053,0.00018120123,-0.009593511,-0.1638473,-0.010908455,-0.06740379,0.03061676
0.1389601839564951,-0.216500765991663,-0.04729709041664023,-0.16533996959732541,0.22249617181912446,-0.05129402763494785,0.18190661,-0.2085835,-0.0528082,0.013621114,-0.010081319,1.0020281,0.9993179,-0.03426242,-0.013783391,-0.034052085,-0.99937385,-0.00960814,0.01148963,-0.1352123,-0.006679535,-0.02628324,-0.0004957663,-0.00957894,-0.1638473,-0.01497188,-0.06740379,0.030052185
0.1775972437334688,-0.07141194496709623,-0.1340306280539157,-0.1819938746736072,0.09312863718656766,-0.13696171534734128,0.20955211,-0.07135533,-0.1390088,0.015770247,-0.0038353791,1.0020617,0.9994194,-0.030252086,-0.015673695,-0.029976053,-0.999545,-0.0033626922,-0.029210836,0.1467076,0.015766144,-0.026297878,0.00024025049,-0.009452215,-0.1638473,-0.010646943,-0.06740379,0.02947998
0.11324655451871604,-0.04636447173236845,-0.07913935692249098,-0.13336447185086442,0.07873966320066021,-0.08233690669713707,0.15306205,-0.051637094,-0.08425078,0.017304378,0.0007229983,1.002055,0.99946684,-0.027841682,-0.017057784,-0.027499503,-0.9996211,0.0011907779,-0.09555511,-0.25663728,0.0481472,-0.026644165,-0.0010441372,-0.009164219,-0.1638473,-0.01820869,-0.06740379,0.029464722
0.054491577409593955,-0.12843491594828502,-0.07740735079455767,-0.03970290970185574,0.12510413493302866,-0.10458652387904951,0.07685378,-0.11585456,-0.09450958,0.020730969,0.003045715,1.0019943,0.9994768,-0.025090462,-0.020414151,-0.024705132,-0.99968845,0.0035537384,-0.04828064,0.027923852,0.33719063,-0.026752347,-0.0008992973,-0.0074324445,-0.1638473,-0.01820869,-0.057445414,0.029533386
0.0430336907171121,-0.03903675349880447,-0.09899081177341885,-0.07660796335089615,0.0654165391396348,-0.10898315481918791,0.08957736,-0.041311678,-0.10749963,0.021952266,0.005781279,1.0019606,0.9995263,-0.021949422,-0.02157513,-0.021504603,-0.99974924,0.0062471814,0.09167011,-0.18320265,0.19982338,-0.026160235,-0.001810814,-0.0063961656,-0.1638473,-0.023657024,-0.05150279,0.02973938
0.1732006127933304,-0.05808882090607082,0.012656967857974145,-0.22076416569119114,0.08220367545652682,0.04210107203284032,0.22673893,-0.059231278,0.023866378,0.023737663,0.012584247,1.0018823,0.9994705,-0.022812193,-0.023202645,-0.02220912,-0.9996677,0.013088747,-0.21513648,0.18233857,-0.29986668,-0.027105117,-0.00089006714,-0.007863518,-0.17030442,-0.018184308,-0.060503,0.030014038
0.2538055133625342,0.09019754989314206,0.029843797896696934,-0.2250275653907193,-0.07394333853869106,0.05062787143189658,0.2691731,0.092985414,0.036723197,0.020965314,0.02062355,1.001847,0.9995048,-0.024096563,-0.020239433,-0.023342684,-0.9995054,0.021073844,-0.18683857,0.25314897,-0.4072914,-0.027903784,0.00038012798,-0.009860657,-0.17589223,-0.010613324,-0.07268395,0.029907227
-0.048895865303963275,0.144156202340295,0.000799387443661525,0.05555742733447598,-0.11377947948115706,-0.025447166956558548,-0.02247011,0.1398828,0.0,0.016745212,0.019945653,1.0019493,0.9995812,-0.024082657,-0.016045362,-0.023431448,-0.9995194,0.0202992,-0.065432824,0.11434102,-0.31004047,-0.028091429,0.0009499325,-0.011361556,-0.17589223,-0.0071701477,-0.08202027,0.03011322
0.08393568158446013,0.29883767268880007,0.022116385941302188,-0.07460949474174233,-0.2627320064834212,0.020917304775809907,0.10902913,0.29169983,0.0,0.008140292,0.023161927,1.0020291,0.9996815,-0.024133256,-0.007383198,-0.02360567,-0.9994496,0.023306333,-0.12641415,0.35502595,-0.072527885,-0.028583042,0.0027203124,-0.011667388,-0.1796141,0.0032824674,-0.08202027,0.029441833
-0.040901990867348026,0.06181929564315793,0.0074609494741742334,0.03477335379927634,-0.013189892820415163,-0.017852986241774057,0.0,0.048419565,0.0,0.0067136893,0.023161927,1.0020406,0.999691,-0.024133233,-0.005959932,-0.023638854,-0.9994497,0.023272727,-0.1711614,0.16109562,0.0027856827,-0.029295934,0.003512189,-0.011595122,-0.18464687,0.008019272,-0.08202027,0.029403687
0.026779479362661087,0.049029096544573526,0.0019984686091538122,-0.01945176112909711,-0.027712098046932865,-0.017852986241774057,0.05287216,0.04928557,0.0,0.005254396,0.024727415,1.0020142,0.9996985,-0.024142517,-0.004466352,-0.023672719,-0.9994121,0.024799712,0.0034521408,-0.1641019,-0.056833267,-0.029132193,0.0026741186,-0.011821312,-0.18464687,0.0031702835,-0.08202027,0.029548645
-0.16214241982267932,0.1786630936583508,-0.14535528350578727,0.1633415009881716,-0.15121745809263848,-0.1973154673437864,-0.13298541,0.17585525,-0.174848,-0.00022610929,0.020710088,1.0021421,0.9998226,-0.018817637,0.00077305257,-0.0184999,-0.99961585,0.020638168,0.11813382,-0.57481897,-0.15852928,-0.028395863,-0.00021334668,-0.012554852,-0.18106064,-0.014279703,-0.0868328,0.03035736
-0.3209540586301023,0.13363093433208492,-0.215434916066781,0.29683920407964626,-0.10178866782623419,-0.2783200616348209,-0.27914008,0.12862477,-0.25039014,-0.0042577293,0.012297379,1.002315,0.99992615,-0.011296472,0.00448169,-0.011053314,-0.9998648,0.012176042,-0.08535738,-0.024597555,-0.057120323,-0.028680671,-0.00033526772,-0.01277768,-0.18106064,-0.014279703,-0.0868328,0.030067444
-0.42354211389999796,0.05515773361264523,-0.13562940294123874,0.42367534514060823,-0.020650842294589397,-0.20797396659260675,-0.39385217,0.04881926,-0.17531432,-0.005785635,0.00046876073,1.0024537,0.99996454,-0.0061063957,0.0058084866,-0.0058281505,-0.99998295,0.0003824391,-0.23334959,0.34058753,-0.19123363,-0.029704016,0.0013693463,-0.013669959,-0.18803948,-0.004093674,-0.092552066,0.029907227
-0.497485452438689,-0.015454823910789483,-0.10018989293891113,0.4865604907086482,0.04236753451406082,-0.18572434941069432,-0.46226642,0.0,-0.14646976,-0.0057876976,-0.013475825,1.0024602,0.999982,-0.0017876852,0.005723645,-0.0014285727,-0.99990785,-0.013500954,-0.044189293,-0.0067989007,-0.7635069,-0.029776443,0.001328505,-0.017419145,-0.18803948,-0.004093674,-0.11548547,0.030036926
-0.38277335427326026,-0.023049004625573973,-0.02145022973825092,0.38144104186715766,0.0671485452675681,-0.0929954059459574,-0.35235065,-0.034183804,-0.060735457,-0.0047557615,-0.023874756,1.0023264,0.99998903,-6.0722232e-05,0.0046997378,0.0003439797,-0.99971527,-0.023860341,-0.46638548,-0.13319522,0.27437592,-0.03195949,0.00065588637,-0.01596017,-0.20175649,-0.008011121,-0.10741571,0.029411316
-0.2508744260691086,-0.11671056677458265,-0.05382542120654268,0.18412557452337125,0.14282388993419246,-0.11564471684970061,-0.18774346,-0.11885226,-0.08824771,-0.0011734127,-0.029447628,1.0022106,0.9999962,0.0025207533,0.0011875051,0.0028669888,-0.9995634,-0.029406987,0.24149768,-0.1685251,-0.29082203,-0.030592205,-0.00019001856,-0.017334478,-0.19462056,-0.01299081,-0.11600911,0.029548645
0.07727411955394742,-0.04876263406335302,-0.19078713655388396,-0.07101225124526546,0.06928024511733216,-0.21436906614189893,0.103899725,-0.04810647,-0.20609073,0.0004259824,-0.02638661,1.0023024,0.9999631,0.008596605,-0.00023764563,0.008894859,-0.9996132,-0.02635041,0.046481967,0.17290281,-0.21622181,-0.030206835,0.00067544554,-0.018328914,-0.19462056,-0.007896276,-0.122380026,0.029464722
-0.36385451810660413,0.018785604926045835,-0.30829709077212814,0.32868147058549707,0.006928024511733216,-0.3874364476946191,-0.31651145,0.0,-0.35137942,0.00070185884,-0.035821524,1.0020539,0.9998185,0.019052582,-0.00015667695,0.019344069,-0.99917316,-0.035760913,-0.2600402,-0.31044096,-0.41033173,-0.031356003,-0.0008801364,-0.02028893,-0.20235796,-0.017133335,-0.1345893,0.029754639
-0.04250076575467108,-0.02717917308449185,-0.16174272610084856,-0.0073277182335639785,0.04396630940138387,-0.16840428813136127,0.0,-0.024657771,-0.16858615,0.0016233057,-0.035817977,1.0020534,0.9997091,0.024103586,-0.0008954817,0.024365393,-0.9990629,-0.03577476,0.03700877,0.027109861,-0.33012104,-0.031014178,-0.0007401864,-0.02183809,-0.20235796,-0.017133335,-0.14448245,0.029968262
0.3040336910726,0.1220398163989928,0.00159877488732305,-0.32894793306671755,-0.09366156214900867,0.03410719759622506,0.34624735,0.11876565,0.0,-0.0019313993,-0.025454652,1.0024296,0.9997069,0.024094196,0.002401613,0.02449097,-0.99937856,-0.02535455,0.275786,0.008974284,0.24233055,-0.029480178,-0.0006916141,-0.020517247,-0.19412048,-0.017133335,-0.13724425,0.02986908
0.24581163892591892,-0.023581929588014985,0.04369984692016337,-0.2153016848261707,0.07740735079455767,0.04436600312321464,0.2603132,-0.03957967,0.040520284,-0.00077240914,-0.017626245,1.0026306,0.99973726,0.02289801,0.0010268135,0.023245657,-0.99957526,-0.017580835,-0.3809771,-0.3935849,0.1028738,-0.031237664,-0.0026560805,-0.01990029,-0.20554642,-0.0289374,-0.13415895,0.02999115
-0.056090352296917,-0.1360290966630695,-0.010924961730040842,0.05275957128166065,0.1520168455363,-0.044898928085655654,-0.024668422,-0.133108,-0.031424586,0.0032028016,-0.018360632,1.0026207,0.9997119,0.023828972,-0.0029037644,0.024107974,-0.9995399,-0.018404033,-0.08360935,-0.3822518,-0.08857536,-0.031499524,-0.004554059,-0.020243667,-0.20554642,-0.040276166,-0.13415895,0.029663086
0.08113782553164478,0.04636447173236845,0.015588055151399738,-0.10698468621003408,-0.023581929588014985,0.022782542144353463,0.123817794,0.04588817,0.0,0.0018166376,-0.014620413,1.0026937,0.99971503,0.023818118,-0.0016105132,0.024133248,-0.99960154,-0.0146418745,-0.19336042,0.03332895,0.21603584,-0.032308828,-0.0043646437,-0.01906227,-0.21137208,-0.040276166,-0.12765013,0.030128479
0.3284150081042765,0.09645941820182401,0.06035375199644513,-0.3336110264880764,-0.057689127184240054,0.08513476274995241,0.36076957,0.08798924,0.069231614,-0.000810025,-0.0039765453,1.0028536,0.99976295,0.021763716,0.0007257149,0.022132898,-0.9997472,-0.0039644036,-0.06221307,0.35745826,0.42769432,-0.03245835,-0.0025555291,-0.016828487,-0.21137208,-0.029754667,-0.11506128,0.029434204
0.2781868303942107,-0.02691271060327134,0.044099540641994124,-0.2598009191899956,0.0656830016208553,0.05942113331217336,0.29875043,-0.035382885,0.0482477,0.00024330663,0.004966628,1.00289,0.9997932,0.02033048,-0.0005241358,0.020688225,-0.9997738,0.0049263313,-0.21764645,-0.008348543,-0.015557289,-0.03338429,-0.0025844942,-0.01682213,-0.217868,-0.029754667,-0.11506128,0.029846191
-0.0095926493239383,0.03890352225819422,0.058754977109122086,0.03743797861148142,-0.017186830038722786,0.03983614094246599,0.0,0.038960144,0.04578292,-0.0009202282,0.004966294,1.0028902,0.9998201,0.018959397,0.0006425952,0.019311432,-0.9998012,0.0049504694,0.11593996,-0.13882956,-0.33279037,-0.032637667,-0.0032657194,-0.01840197,-0.21439525,-0.033913027,-0.12502936,0.029953003
-0.17053598798112535,0.1721347628684484,0.11098162342834172,0.1898545178696122,-0.14055895884381814,0.07341041357625004,-0.15043873,0.16726182,0.088683374,-0.005944274,0.00043811882,1.002908,0.9998508,0.016293604,0.005750002,0.016623776,-0.9998618,0.0005307877,-0.10264896,-0.0015102231,0.20335197,-0.032987725,-0.003256942,-0.0172932,-0.21747772,-0.033913027,-0.11892284,0.030029297
-0.19824808602805818,0.009326186842717792,0.10951607978162892,0.1979816235468377,0.03903675349880447,0.06141960192132717,-0.16835833,0.0,0.081955194,-0.005943193,-0.004630481,1.0029103,0.9998879,0.013797475,0.0058325683,0.014156582,-0.9998895,-0.004536966,-0.3959483,0.14661077,0.14108276,-0.03480253,-0.0025076035,-0.01650132,-0.22939798,-0.029499223,-0.114675455,0.03010559
-0.07407656977930133,-0.05342572748471192,0.06475038293658353,0.07087902000465522,0.07407656977930133,0.036638591167819895,-0.042721257,-0.052836176,0.04718185,-0.0043850755,-0.00588725,1.0029137,0.99991405,0.012397167,0.0042901095,0.012756556,-0.9999017,-0.005820278,0.3156092,-0.078018025,-0.41440296,-0.033050474,-0.0028851556,-0.018490829,-0.22007938,-0.029499223,-0.12691101,0.029525757
-0.05382542120654268,0.08926493120887029,0.04290045947650184,0.04743032165725048,-0.056090352296917,0.018385911204215073,-0.020871334,0.08359261,0.027130544,-0.006854224,-0.0064990753,1.0028993,0.99990994,0.011597033,0.006754774,0.011973401,-0.99990785,-0.0064024027,-0.18073094,-0.19826114,-0.24907494,-0.033788875,-0.0038620355,-0.019643748,-0.22539215,-0.03532732,-0.13423283,0.029396057
-0.041834609551619814,0.024514548272286763,0.07261102613258852,0.06115313944010666,0.0075941807147844875,0.0369050536490404,-0.021737337,0.0,0.0512454,-0.0068640294,-0.0071305763,1.0028951,0.99992627,0.010084075,0.0067621884,0.010464767,-0.9999205,-0.0070423214,-0.2596522,0.1545259,0.23937988,-0.03491819,-0.0030700956,-0.01834863,-0.23303679,-0.030777793,-0.12718505,0.029441833
-0.04769678413847099,0.0057289433462409285,0.014255742745297196,0.028378254249984136,0.02691271060327134,-0.010258805526989571,0.0,0.0,0.0,-0.0068640294,-0.0071305763,1.0028951,0.9999263,0.010084076,0.006762189,0.010464767,-0.9999205,-0.0070423214,-0.09924069,-0.10644209,0.07537651,-0.035239805,-0.0035869554,-0.017880006,-0.23303679,-0.03395712,-0.12718505,0.02986908
0.005062787143189658,0.018385911204215073,-0.03037672285913795,0.007061255752343471,0.006928024511733216,-0.05675650849996827,0.028757304,0.0,-0.047079254,-0.0068539944,-0.006278135,1.0029012,0.99991107,0.0114970645,0.006753513,0.011871931,-0.9999105,-0.0061827693,-0.16038226,-0.020665005,-0.17008305,-0.035865515,-0.0036723458,-0.018641021,-0.23783092,-0.03395712,-0.13226916,0.029891968
-0.0430336907171121,0.06008728951522463,-0.02851148549059439,0.029577335415476424,-0.032108728987071254,-0.03916998473941472,0.0,0.05701298,-0.037353374,-0.008562676,-0.006285817,1.0028895,0.9998846,0.01261778,0.008464099,0.013003239,-0.99989647,-0.0061624553,-0.031430267,0.08474833,-0.11251831,-0.03584334,-0.0032302425,-0.019110408,-0.23783092,-0.03395712,-0.13564543,0.030006409
-0.014255742745297196,0.07101225124526546,0.049695252747624805,0.01985145485092787,-0.037171516130260915,0.029843797896696934,0.0,0.06500685,0.036256887,-0.010564206,-0.006276319,1.0028725,0.9998791,0.01150864,0.010452653,0.011906364,-0.9999103,-0.0061365906,-0.092601694,-0.14757387,0.09353542,-0.03612713,-0.0039519607,-0.01854718,-0.23783092,-0.038471974,-0.13564543,0.030593872
0.05502450237203497,0.13536294046001823,0.06421745797414251,-0.05462480865020421,-0.10098928038257265,0.05662327725935802,0.0845812,0.12909108,0.05690773,-0.014409098,-0.0037462502,1.0028478,0.99985,0.00984949,0.01424657,0.010244476,-0.9999411,-0.0035862091,-0.08467303,-0.19765465,0.2972622,-0.03636986,-0.0049204743,-0.016968133,-0.23783092,-0.044325974,-0.12684132,0.02961731
0.09192955602107537,0.08433537530629089,0.037837672333312186,-0.09792496184853682,-0.03797090357392244,0.03503981628049684,0.1246838,0.07206811,0.032926105,-0.016540037,-5.1865587e-05,1.002831,0.9998268,0.008932743,0.01633133,0.00928292,-0.9999569,0.00010527338,-0.20095491,-0.21381883,-0.103616714,-0.037192784,-0.005964966,-0.017401377,-0.24374586,-0.05061956,-0.1298912,0.029434204
0.12417151624875687,0.049828483988235056,-0.03916998473941472,-0.12763552850462348,-0.01438897398590745,-0.0511607963943376,0.15566006,0.043023698,-0.04867803,-0.017813208,0.004530985,1.0028102,0.9997913,0.010444008,0.017559694,0.010719113,-0.9999315,0.004710413,0.048614368,-0.24508345,0.010292053,-0.03676375,-0.0071605584,-0.01726291,-0.24374586,-0.057852097,-0.1298912,0.029510498
0.06475038293658353,-0.002398162330984575,-0.0752756509447936,-0.07274425737319877,0.0464977029729787,-0.08580091895300368,0.09850386,0.0,-0.08405093,-0.017824536,0.007424877,1.002797,0.9997619,0.012995159,0.017529033,0.013219106,-0.9998834,0.00764035,-0.08535996,0.00086867064,0.23905659,-0.037006732,-0.0071204123,-0.015981311,-0.24374586,-0.057852097,-0.12277998,0.02974701
-0.013056661579804908,-0.10964931102223918,-0.04396630940138387,0.022116385941302188,0.1508177643708077,-0.07660796335089615,0.0,-0.119318575,-0.063799776,-0.0142556885,0.007390823,1.0028607,0.99979156,0.014905091,0.013956732,0.015156664,-0.99985635,0.007593104,-0.021396741,-0.03713508,0.49945736,-0.03692868,-0.0072704856,-0.013404119,-0.24374586,-0.057852097,-0.10782354,0.029945374
-0.1697366005374638,-0.3233522209610869,0.01505513018895872,0.17040275674051508,0.3610566620537888,-0.03863705977697371,-0.14031315,-0.33128947,0.0,-0.0042991173,0.0031738528,1.0030333,0.9998814,0.01484568,0.0040931073,0.015231905,-0.99987876,0.0032382582,-0.3339855,-0.04743834,0.299201,-0.038413964,-0.007471325,-0.011841093,-0.25375482,-0.057852097,-0.09885701,0.029968262
-0.09166309353985486,-0.3446692194587275,-0.005196018383799912,0.08979785617131131,0.3729142424681014,-0.05542419609386573,-0.060973935,-0.34787676,-0.03382275,0.0061598727,0.0013357343,1.003084,0.99985445,0.015851336,-0.0063087395,0.016279642,-0.9998667,0.0012513861,-0.12073606,0.29455402,0.06291962,-0.038825575,-0.005961198,-0.01146729,-0.2573749,-0.04902033,-0.09885701,0.02998352
-0.011191424211261349,-0.343869832015066,-0.037171516130260915,-0.01692036755750228,0.36079019957256825,-0.0656830016208553,0.03262101,-0.34141505,-0.0549399,0.016230147,0.0023080735,1.0030208,0.9997137,0.01746,-0.016363105,0.017907817,-0.9998376,0.0020472102,0.10435723,-0.38329065,-0.077775,-0.03810966,-0.007847846,-0.011798829,-0.25430563,-0.060293414,-0.09885701,0.029411316
0.032108728987071254,-0.07767381327577817,0.0018652373685435584,-0.020251148572758632,0.0877993875621575,-0.014255742745297196,0.055936478,-0.07182164,0.0,0.018347798,0.0039573526,1.0029827,0.9996769,0.017433055,-0.018502442,0.017912114,-0.9998329,0.0036534418,-0.1515408,-0.086742446,0.8084183,-0.038676817,-0.008242318,-0.007697744,-0.25876033,-0.060293414,-0.075092696,0.029396057
-0.06701531402695785,0.09019754989314206,0.045565084288706925,0.07620826962906538,-0.05022817771006582,0.023448698347404734,-0.041855253,0.08112783,0.03099425,0.015951393,0.0027023666,1.0030315,0.99973375,0.016541954,-0.016088756,0.016989322,-0.9998527,0.0024619764,-0.3779844,0.13872278,0.19506931,-0.040373355,-0.007507493,-0.0066839084,-0.26990908,-0.056201752,-0.06933908,0.02949524
-0.0747427259823526,0.01945176112909711,0.04809647786030175,0.07634150086967564,0.02105053601642016,0.014122511504686942,-0.045785576,0.0,0.027596854,0.015953615,0.0013210365,1.0030352,0.999747,0.015741928,-0.016066186,0.016167236,-0.99986875,0.001098096,0.058937594,0.06723585,0.020258904,-0.0398768,-0.0071337763,-0.0065491945,-0.26990908,-0.056201752,-0.06933908,0.029792786
-0.0511607963943376,-0.016387442595061263,-0.016120980113840753,0.050094946469455566,0.04663093421358895,-0.041168453348568536,-0.020871334,-0.020594217,-0.032157358,0.016584443,0.00069610315,1.003026,0.99972075,0.016735993,-0.016686177,0.01715185,-0.99985284,0.00044929658,-0.18251307,-0.068452775,-0.0036010742,-0.04058998,-0.0074403714,-0.006534454,-0.27549425,-0.056201752,-0.06933908,0.030601501
-0.028378254249984136,-0.045565084288706925,-0.03877029101758396,0.017586523760553547,0.0767411945915064,-0.06275191432742971,0.0,-0.05023817,-0.054273743,0.018095339,0.0007231119,1.003001,0.99966586,0.018364051,-0.018193178,0.018780822,-0.9998236,0.0004234402,-0.07147938,-0.09383258,-0.015349388,-0.040744428,-0.007872333,-0.006578529,-0.27549425,-0.056201752,-0.06933908,0.030006409
-0.05249310880044014,-0.023049004625573973,-0.011724349173702367,0.05995405827461438,0.05395865244715294,-0.04036906590490701,-0.026467044,-0.02758886,-0.02955935,0.018926078,-5.8394566e-05,1.0029866,0.9996337,0.019266305,-0.01900718,0.019669099,-0.9998065,-0.0003871771,-0.028604522,0.12382179,-0.06430149,-0.040683728,-0.0072138626,-0.006867144,-0.27549425,-0.05248158,-0.06933908,0.030044556
-0.13336447185086442,-0.020517611053979142,0.036638591167819895,0.13363093433208492,0.06008728951522463,-0.0039969372183076245,-0.10374116,-0.029387482,0.0,0.019792985,-0.003118671,1.00297,0.99961704,0.019324295,-0.019812398,0.01966867,-0.99980056,-0.0034547348,-0.17279972,-0.06677801,0.048373222,-0.041344307,-0.0075116833,-0.006590942,-0.28057653,-0.05248158,-0.06933908,0.029411316
0.06408422673353224,-0.0014655436467127959,0.024514548272286763,-0.005196018383799912,0.041168453348568536,0.008793261880276773,0.064396665,0.0,0.0,0.019792985,-0.0012160987,1.002976,0.99961704,0.019286713,-0.019849055,0.019668635,-0.99980533,-0.0015581719,-0.22427505,0.2837766,0.22668839,-0.042258963,-0.006055242,-0.005424545,-0.28718302,-0.044122346,-0.0626615,0.029457092
-0.013056661579804908,-0.0095926493239383,0.0941944871114497,0.00866003063966652,0.040768759626737774,0.07007963256099368,0.0,0.0,0.07862442,0.019790165,-0.0012619995,1.002976,0.999659,0.016968507,-0.019849,0.017349996,-0.9998483,-0.0015581679,-0.032713786,-0.07374748,-0.019914627,-0.04221124,-0.0063937027,-0.0054969955,-0.28718302,-0.044122346,-0.0626615,0.02949524
-0.1328315468884234,0.045298621807486415,0.01705359879811253,0.13389739681330545,-0.011058192970651094,-0.022516079663132953,-0.10360793,0.039093375,0.0,0.018624691,-0.0043508187,1.002995,0.99968135,0.017029623,-0.01863511,0.017351726,-0.9998388,-0.004617173,-0.13365771,-0.1372002,0.021814346,-0.04266847,-0.007047735,-0.005360439,-0.29115587,-0.048200503,-0.0626615,0.029724121
0.03916998473941472,-0.026513016881440577,0.0037304747370871167,-0.033307810152563545,0.05515773361264523,-0.01345635530163567,0.06599544,-0.029920407,0.0,0.019525412,-0.0023640965,1.0029869,0.9996641,0.016992703,-0.01956658,0.017347546,-0.99984604,-0.0026522803,-0.066267386,0.054587167,-0.0930357,-0.042786464,-0.006739561,-0.0057988153,-0.29115587,-0.048200503,-0.0626615,0.030014038
-0.06648238906451683,0.016653905076281773,0.009192955602107537,0.07101225124526546,0.01505513018895872,-0.01958499236970736,-0.03899078,0.0,0.0,0.019525412,-0.003533984,1.0029842,0.9996642,0.017015528,-0.019546762,0.017347533,-0.9998422,-0.0038185015,-0.09978621,0.041070946,-0.13490963,-0.043071464,-0.0065005086,-0.0064443694,-0.29115587,-0.048200503,-0.0666973,0.029914856
-0.0018652373685435584,-0.011324655451871604,0.006661562030512709,0.0018652373685435584,0.041301684589178794,-0.016520673835671518,0.0278913,0.0,0.0,0.019525412,-0.0026943553,1.0029871,0.9996642,0.016999165,-0.019561006,0.017347528,-0.9998451,-0.0029815019,-0.15485285,0.027602844,0.006321907,-0.043630373,-0.006329992,-0.006380538,-0.29580364,-0.048200503,-0.0666973,0.030014038
-0.046231240491758196,0.011591117933092112,0.010791730489430587,0.048895865303963275,0.022516079663132953,-0.016387442595061263,0.0,0.0,0.0,0.019525412,-0.0026943553,1.0029871,0.9996642,0.016999165,-0.019561006,0.017347528,-0.9998451,-0.0029815019,-0.0890123,-0.05978552,0.050614357,-0.04385728,-0.0065972693,-0.006095564,-0.29580364,-0.048200503,-0.0666973,0.029586792
-0.017719755001163805,0.0005329249624410166,0.009725880564548555,0.021583460978861175,0.03317457891195329,-0.014655436467127957,0.0,0.0,0.0,0.019525412,-0.0026943553,1.0029871,0.9996642,0.016999165,-0.019561006,0.017347528,-0.9998451,-0.0029815019,-0.09380071,-0.031055097,-0.030788422,-0.044106998,-0.0067195585,-0.006219028,-0.29580364,-0.048200503,-0.0666973,0.029548645
