InpGyro_1X,InpGyro_1Y,InpGyro_1Z,InpGyro_2X,InpGyro_2Y,InpGyro_2Z,GyroX,GyroY,GyroZ,ExpGravityX,ExpGravityY,ExpGravityZ,ExpOxX,ExpOxY,ExpOxZ,ExpOyX,ExpOyY,ExpOyZ,AccX,AccY,AccZ,AccNoiseX,AccNoiseY,AccNoiseZ,ExpSpeedX,ExpSpeedY,ExpSpeedZ,dT
0.002031777,-6.794778e-05,-0.00078206696,0.0037224777,0.0051507205,-0.016207578,0.0,0.0,0.0,0.13406494,-0.02487805,0.99066025,0.99097264,0.003365658,-0.13402271,-2.3283062e-10,-0.9996849,-0.02510468,-0.023738384,-0.028311417,0.029018402,-0.00011869192,-0.00014155707,0.00014509201,0.0,0.0,0.0,0.008514404
-0.0014322344,-0.0010005664,0.00028378284,0.0037224777,0.005816877,-0.013010029,0.0,0.0,0.0,0.13406494,-0.02487805,0.99066025,0.99097264,0.003365658,-0.13402271,-2.3283062e-10,-0.9996849,-0.02510468,-0.0321182,-0.029508516,0.023033142,-0.00027868946,-0.00028839186,0.00025953224,0.0,0.0,0.0,0.024871826
-0.0010325406,0.0017972896,0.00028378284,0.008785266,0.00821504,-0.014075879,0.0,0.0,0.0,0.13406494,-0.02487805,0.99066025,0.99097264,0.003365658,-0.13402271,-2.3283062e-10,-0.9996849,-0.02510468,-0.022541285,0.049500138,-0.027245522,-0.00039000245,-3.9449224e-05,0.00012200698,0.0,0.0,0.0,0.025115967
0.0021650083,0.00033174595,-0.0042460794,0.004255403,0.006349802,-0.014075879,0.0,0.0,0.0,0.13406494,-0.02487805,0.99066025,0.99097264,0.003365658,-0.13402271,-2.3283062e-10,-0.9996849,-0.02510468,0.0421021,-0.013946205,0.024230003,-0.00017754194,-0.000108983004,0.00024254696,0.0,0.0,0.0,0.025177002
3.3309683e-05,-0.00073410396,0.00041701412,0.0018572416,0.008081809,-0.0119441785,0.0,0.0,0.0,0.13406494,-0.02487805,0.99066025,0.99097264,0.003365658,-0.13402271,-2.3283062e-10,-0.9996849,-0.02510468,-0.00219059,0.011192918,-0.040413857,-0.00018760718,-5.2473504e-05,3.9264953e-05,0.0,0.0,0.0,0.025115967
-0.0012990031,-6.794778e-05,-0.0018479172,0.0041221716,0.0052839518,-0.013542954,0.0,0.0,0.0,0.13406494,-0.02487805,0.99066025,0.99097264,0.003365658,-0.13402271,-2.3283062e-10,-0.9996849,-0.02510468,0.015765905,0.027952313,-0.010485649,-0.00010783962,8.7550434e-05,-1.3359615e-05,0.0,0.0,0.0,0.025299072
0.002431471,-0.0039316537,-0.0011817608,0.0023901667,0.0028857905,-0.014475573,0.0,0.0,0.0,0.13406494,-0.02487805,0.99066025,0.99097264,0.003365658,-0.13402271,-2.3283062e-10,-0.9996849,-0.02510468,-0.03331518,-0.0031723082,0.02183628,-0.00027387633,7.125114e-05,9.588859e-05,0.0,0.0,0.0,0.024871826
-0.002231622,-0.0027325726,-0.00038237358,0.004788328,0.0074156523,-0.011411253,0.0,0.0,0.0,0.13406494,-0.02487805,0.99066025,0.99097264,0.003365658,-0.13402271,-2.3283062e-10,-0.9996849,-0.02510468,-0.0333153,-0.015143305,0.013455391,-0.00043908344,-4.821639e-06,0.0001626861,0.0,0.0,0.0,0.024658203
-0.0032974724,-0.0047310414,0.0010831701,0.0022569355,0.009014428,-0.015674654,0.0,0.0,0.0,0.13406494,-0.02487805,0.99066025,0.99097264,0.003365658,-0.13402271,-2.3283062e-10,-0.9996849,-0.02510468,0.00020360947,0.026755229,0.029019356,-0.00043586997,0.0001289786,0.00030696945,0.0,0.0,0.0,0.024658203
0.0014988519,0.0023302145,-0.0011817608,0.001990473,0.005950108,-0.014342342,0.0,0.0,0.0,0.13406494,-0.02487805,0.99066025,0.99097264,0.003365658,-0.13402271,-2.3283062e-10,-0.9996849,-0.02510468,-0.0357095,-0.004369393,-0.01647091,-0.00061223813,0.00010648674,0.00022308006,0.0,0.0,0.0,0.024658203
-0.0027645472,-0.0017999539,-0.0031802296,0.0031895526,0.007282421,-0.016074346,0.0,0.0,0.0,0.13406494,-0.02487805,0.99066025,0.99097264,0.003365658,-0.13402271,-2.3283062e-10,-0.9996849,-0.02510468,-0.0033876896,0.011192903,0.012259483,-0.00062611536,0.00016191881,0.00028326208,0.0,0.0,0.0,0.024719238
0.0016320832,0.0007314398,0.00041701412,0.0033227839,0.005950108,-0.015008498,0.0,0.0,0.0,0.13406494,-0.02487805,0.99066025,0.99097264,0.003365658,-0.13402271,-2.3283062e-10,-0.9996849,-0.02510468,0.009780407,0.006404504,-0.015274048,-0.0005740827,0.00019313174,0.00020547553,0.0,0.0,0.0,0.024719238
0.002031777,0.00086467084,-0.00051560486,-0.00040769018,0.005816877,-0.017006965,0.0,0.0,0.0,0.13406494,-0.02487805,0.99066025,0.99097264,0.003365658,-0.13402271,-2.3283062e-10,-0.9996849,-0.02510468,0.0073862076,-0.004369393,0.012259483,-0.0005342813,0.00017031912,0.00026574556,0.0,0.0,0.0,0.025146484
0.0014988519,0.0016640583,0.00028378284,0.0034560151,0.0062165707,-0.015941115,0.0,0.0,0.0,0.13406494,-0.02487805,0.99066025,0.99097264,0.003365658,-0.13402271,-2.3283062e-10,-0.9996849,-0.02510468,0.025342703,0.038726225,-0.0009088516,-0.00040489642,0.00036309863,0.00025987256,0.0,0.0,0.0,0.02468872
0.0006994661,-0.0011337977,-0.0019811485,0.00025846623,0.005417183,-0.014742035,0.0,0.0,0.0,0.13406494,-0.02487805,0.99066025,0.99097264,0.003365658,-0.13402271,-2.3283062e-10,-0.9996849,-0.02510468,0.008583307,0.008798704,0.0038795471,-0.0003599554,0.00040527666,0.00027797092,0.0,0.0,0.0,0.02468872
0.002031777,-0.0014002601,0.0018825573,0.001990473,0.0056836456,-0.015008498,0.0,0.0,0.0,0.13406494,-0.02487805,0.99066025,0.99097264,0.003365658,-0.13402271,-2.3283062e-10,-0.9996849,-0.02510468,0.0397079,0.011192903,0.0338068,-0.00015961612,0.0004592148,0.00044561506,0.0,0.0,0.0,0.024749756
-0.00036638416,0.00086467084,-0.0021143795,0.0046550967,0.008348271,-0.0119441785,0.0,0.0,0.0,0.13406494,-0.02487805,0.99066025,0.99097264,0.003365658,-0.13402271,-2.3283062e-10,-0.9996849,-0.02510468,0.0432992,0.009995803,0.0014848709,5.7677957e-05,0.00050689775,0.00045081135,0.0,0.0,0.0,0.024658203
-0.00036638416,-0.0016667226,-0.0014482234,0.0054544844,0.006882727,-0.013942648,0.0,0.0,0.0,0.13406494,-0.02487805,0.99066025,0.99097264,0.003365658,-0.13402271,-2.3283062e-10,-0.9996849,-0.02510468,-0.016555786,0.036332026,-0.0547781,-2.538936e-05,0.0006860234,0.00017466678,0.0,0.0,0.0,0.024658203
0.0045631714,-0.0025993413,-0.00064883614,0.00811911,0.0071491897,-0.014342342,0.0,0.0,0.0,0.13406494,-0.02487805,0.99066025,0.99097264,0.003365658,-0.13402271,-2.3283062e-10,-0.9996849,-0.02510468,0.0073862076,0.008798704,-0.0033025742,1.1668624e-05,0.0007265868,0.00015728058,0.0,0.0,0.0,0.024597168
0.00016654097,0.00019851467,-0.0022476108,0.00292309,0.005017489,-0.016074346,0.0,0.0,0.0,0.13406494,-0.02487805,0.99066025,0.99097264,0.003365658,-0.13402271,-2.3283062e-10,-0.9996849,-0.02510468,0.030131102,-0.00077809393,0.0026826859,0.00016226577,0.0007190634,0.00016990761,0.0,0.0,0.0,0.024627686
-0.0023648534,-0.0004676415,0.00015055155,0.001590779,0.004884258,-0.01647404,0.0,0.0,0.0,0.13406494,-0.02487805,0.99066025,0.99097264,0.003365658,-0.13402271,-2.3283062e-10,-0.9996849,-0.02510468,0.028934002,0.0195726,-0.004500389,0.00030612445,0.0008133311,0.00014655612,0.0,0.0,0.0,0.024719238
0.0010991581,0.00019851467,0.00028378284,0.0011910852,0.007682115,-0.015807886,0.0,0.0,0.0,0.13406494,-0.02487805,0.99066025,0.99097264,0.003365658,-0.13402271,-2.3283062e-10,-0.9996849,-0.02510468,-0.0357095,-0.037888214,0.023033142,0.00012604632,0.00061982335,0.00026098907,0.0,0.0,0.0,0.024749756
-0.0012990031,0.0021969832,-0.0015814546,0.0013243165,0.008081809,-0.013942648,0.0,0.0,0.0,0.13406494,-0.02487805,0.99066025,0.99097264,0.003365658,-0.13402271,-2.3283062e-10,-0.9996849,-0.02510468,0.004992008,-0.019931719,0.0433836,0.00015037613,0.00051706564,0.00047660212,0.0,0.0,0.0,0.024658203
-0.000766078,0.0012643647,0.00015055155,0.00811911,0.0064830333,-0.015274961,0.0,0.0,0.0,0.13406494,-0.02487805,0.99066025,0.99097264,0.003365658,-0.13402271,-2.3283062e-10,-0.9996849,-0.02510468,0.013371706,-0.029508516,-0.012880325,0.00021648277,0.00036693772,0.00040981747,0.0,0.0,0.0,0.024902344
0.0034973212,-0.004997504,-0.00038237358,0.0011910852,0.0064830333,-0.012743566,0.0,0.0,0.0,0.13406494,-0.02487805,0.99066025,0.99097264,0.003365658,-0.13402271,-2.3283062e-10,-0.9996849,-0.02510468,-0.045286298,-0.0067635924,-0.01647091,-1.1031123e-05,0.0003312851,0.00032541383,0.0,0.0,0.0,0.025146484
-0.0027645472,-0.0027325726,0.0034813327,0.0035892464,0.005017489,-0.013409723,0.0,0.0,0.0,0.13406494,-0.02487805,0.99066025,0.99097264,0.003365658,-0.13402271,-2.3283062e-10,-0.9996849,-0.02510468,-0.0069789886,0.033937827,0.03739834,-4.587091e-05,0.0004993178,0.00051077845,0.0,0.0,0.0,0.02468872
0.0005662348,-0.00033441023,0.0005502454,0.0034560151,0.007682115,-0.01753989,0.0,0.0,0.0,0.13406494,-0.02487805,0.99066025,0.99097264,0.003365658,-0.13402271,-2.3283062e-10,-0.9996849,-0.02510468,0.0073862076,-0.013946205,0.055355072,-8.710522e-06,0.00042709016,0.0007849999,0.0,0.0,0.0,0.024719238
0.00096592866,0.0037957581,0.0013496326,0.0059874095,0.005950108,-0.013409723,0.0,0.0,0.0,0.13406494,-0.02487805,0.99066025,0.99097264,0.003365658,-0.13402271,-2.3283062e-10,-0.9996849,-0.02510468,0.019357204,0.009995803,-0.052384377,8.811905e-05,0.00047493374,0.0005191531,0.0,0.0,0.0,0.02468872
0.00043300353,0.0019305209,0.0008167075,0.0014575478,0.006349802,-0.012343872,0.0,0.0,0.0,0.13406494,-0.02487805,0.99066025,0.99097264,0.003365658,-0.13402271,-2.3283062e-10,-0.9996849,-0.02510468,0.018160105,-0.00077809393,-0.030837059,0.00017847898,0.0004686686,0.00036237203,0.0,0.0,0.0,0.02456665
0.0006994661,0.001397596,-0.0011817608,0.00292309,0.003551947,-0.0119441785,0.0,0.0,0.0,0.13406494,-0.02487805,0.99066025,0.99097264,0.003365658,-0.13402271,-2.3283062e-10,-0.9996849,-0.02510468,0.056467295,-0.004369408,0.012259483,0.00045992306,0.00044447818,0.00042185758,0.0,0.0,0.0,0.024658203
-0.0010325406,0.0035292956,-0.0014482234,0.0033227839,0.004484566,-0.014475573,0.0,0.0,0.0,0.13406494,-0.02487805,0.99066025,0.99097264,0.003365658,-0.13402271,-2.3283062e-10,-0.9996849,-0.02510468,-0.020147085,0.021966815,-0.034428596,0.00035688802,0.0005520899,0.00024760532,0.0,0.0,0.0,0.024627686
-0.00036638416,-0.0004676415,-0.00064883614,0.003855709,0.0043513346,-0.013276491,0.0,0.0,0.0,0.13406494,-0.02487805,0.99066025,0.99097264,0.003365658,-0.13402271,-2.3283062e-10,-0.9996849,-0.02510468,0.019357204,-0.015143305,0.008667946,0.0004518896,0.00047361292,0.00028970704,0.0,0.0,0.0,0.024658203
0.0010991581,0.00046497723,-0.00064883614,0.0041221716,0.0074156523,-0.01647404,0.0,0.0,0.0,0.13406494,-0.02487805,0.99066025,0.99097264,0.003365658,-0.13402271,-2.3283062e-10,-0.9996849,-0.02510468,-0.0321182,-0.021128818,0.025427818,0.00028903913,0.00036560078,0.0004153976,0.0,0.0,0.0,0.024719238
0.0005662348,-0.0023328788,-0.0010485295,-7.996336e-06,0.008881196,-0.015807886,0.0,0.0,0.0,0.13406494,-0.02487805,0.99066025,0.99097264,0.003365658,-0.13402271,-2.3283062e-10,-0.9996849,-0.02510468,0.006189108,0.015981302,-0.029639244,0.0003185395,0.00044367928,0.0002651244,0.0,0.0,0.0,0.02468872
0.0008326974,-0.00020117895,-0.0014482234,0.0027898587,0.004617797,-0.013276491,0.0,0.0,0.0,0.13406494,-0.02487805,0.99066025,0.99097264,0.003365658,-0.13402271,-2.3283062e-10,-0.9996849,-0.02510468,-0.014161587,0.013587117,0.00028800964,0.00024613886,0.0005093965,0.00026523884,0.0,0.0,0.0,0.024597168
0.0008326974,0.0015308273,0.0010831701,0.0021237042,0.0034187157,-0.01420911,0.0,0.0,0.0,0.13406494,-0.02487805,0.99066025,0.99097264,0.003365658,-0.13402271,-2.3283062e-10,-0.9996849,-0.02510468,-0.008176088,0.036332026,0.023033142,0.00020402775,0.0006885096,0.00037907832,0.0,0.0,0.0,0.024627686
0.00043300353,-0.0006008727,-0.00078206696,0.0035892464,0.00821504,-0.013542954,0.0,0.0,0.0,0.13406494,-0.02487805,0.99066025,0.99097264,0.003365658,-0.13402271,-2.3283062e-10,-0.9996849,-0.02510468,-0.028526783,-0.04866214,0.0433836,6.03737e-05,0.0004417564,0.0005941009,0.0,0.0,0.0,0.02508545
-0.00036638416,0.0016640583,-0.0035799232,0.0046550967,0.0066162646,-0.013276491,0.0,0.0,0.0,0.13406494,-0.02487805,0.99066025,0.99097264,0.003365658,-0.13402271,-2.3283062e-10,-0.9996849,-0.02510468,-0.020147085,0.038726225,0.035004616,-4.066359e-05,0.00063317874,0.00076615345,0.0,0.0,0.0,0.024841309
0.0013656206,0.00019851467,-0.0014482234,-0.00067415275,0.009014428,-0.014342342,0.0,0.0,0.0,0.13406494,-0.02487805,0.99066025,0.99097264,0.003365658,-0.13402271,-2.3283062e-10,-0.9996849,-0.02510468,0.013371706,0.0016161054,0.0050764084,2.6398255e-05,0.00063809333,0.0007877047,0.0,0.0,0.0,0.024658203
-0.0047630146,0.00019851467,-0.0010485295,0.0023901667,0.010080278,-0.017140197,0.0,0.0,0.0,0.13406494,-0.02487805,0.99066025,0.99097264,0.003365658,-0.13402271,-2.3283062e-10,-0.9996849,-0.02510468,-0.021344185,-0.012749121,-0.055975914,-8.045466e-05,0.00057115726,0.0005038866,0.0,0.0,0.0,0.024597168
-0.0020983908,-6.794778e-05,0.0016160952,0.0018572416,0.0074156523,-0.016740503,0.0,0.0,0.0,0.13406494,-0.02487805,0.99066025,0.99097264,0.003365658,-0.13402271,-2.3283062e-10,-0.9996849,-0.02510468,0.030131102,-0.035494015,0.061340332,7.060311e-05,0.0003908314,0.0008080689,0.0,0.0,0.0,0.024597168
-0.0020983908,-0.0008673352,-0.003446692,0.0026566274,0.006882727,-0.013809416,0.0,0.0,0.0,0.13406494,-0.02487805,0.99066025,0.99097264,0.003365658,-0.13402271,-2.3283062e-10,-0.9996849,-0.02510468,-0.08000219,-0.019931719,0.013456345,-0.00032976083,0.00028921867,0.00087131024,0.0,0.0,0.0,0.02456665
0.0008326974,0.0009979021,0.00041701412,0.0011910852,0.005417183,-0.013409723,0.0,0.0,0.0,0.13406494,-0.02487805,0.99066025,0.99097264,0.003365658,-0.13402271,-2.3283062e-10,-0.9996849,-0.02510468,0.00020360947,0.025558129,0.019441605,-0.000327094,0.00041556323,0.0009641617,0.0,0.0,0.0,0.024658203
0.00043300353,0.0007314398,0.0006834767,-0.00054092146,0.009014428,-0.014608804,0.0,0.0,0.0,0.13406494,-0.02487805,0.99066025,0.99097264,0.003365658,-0.13402271,-2.3283062e-10,-0.9996849,-0.02510468,0.020554304,0.02436103,0.061340332,-0.00022268701,0.0005352906,0.0012660426,0.0,0.0,0.0,0.024749756
-0.00049961545,0.001397596,-0.0013149921,0.0045218654,0.003551947,-0.016340809,0.0,0.0,0.0,0.13406494,-0.02487805,0.99066025,0.99097264,0.003365658,-0.13402271,-2.3283062e-10,-0.9996849,-0.02510468,0.0432992,0.041120425,-0.06555271,-5.0775852e-06,0.0007382162,0.00093194883,0.0,0.0,0.0,0.024719238
0.0016320832,-0.0019331852,-0.0017146859,0.0014575478,0.0062165707,-0.015541423,0.0,0.0,0.0,0.13406494,-0.02487805,0.99066025,0.99097264,0.003365658,-0.13402271,-2.3283062e-10,-0.9996849,-0.02510468,-0.046483397,-0.012749091,0.06014347,-0.00023746917,0.00067077973,0.0012280064,0.0,0.0,0.0,0.024627686
-0.003563933,0.0016640583,-0.0015814546,0.004388634,0.006882727,-0.017273428,0.0,0.0,0.0,0.13406494,-0.02487805,0.99066025,0.99097264,0.003365658,-0.13402271,-2.3283062e-10,-0.9996849,-0.02510468,0.026539803,-0.00077809393,-0.005698204,-0.0001035828,0.0006635354,0.0011933754,0.0,0.0,0.0,0.024597168
0.0013656206,0.0020637522,0.00321487,0.0033227839,0.008881196,-0.014342342,0.0,0.0,0.0,0.13406494,-0.02487805,0.99066025,0.99097264,0.003365658,-0.13402271,-2.3283062e-10,-0.9996849,-0.02510468,-0.018949986,0.015981317,-0.028442383,-0.00019781482,0.0007401243,0.0010451967,0.0,0.0,0.0,0.024597168
0.0018985458,-0.00020117895,-0.0002491423,0.008385573,0.004084872,-0.014342342,0.0,0.0,0.0,0.13406494,-0.02487805,0.99066025,0.99097264,0.003365658,-0.13402271,-2.3283062e-10,-0.9996849,-0.02510468,0.012174606,0.021966815,0.079297066,-0.00013595271,0.0008462578,0.001436456,0.0,0.0,0.0,0.025299072
3.3309683e-05,-0.00033441023,-0.00038237358,0.0033227839,0.0062165707,-0.0128767975,0.0,0.0,0.0,0.13406494,-0.02487805,0.99066025,0.99097264,0.003365658,-0.13402271,-2.3283062e-10,-0.9996849,-0.02510468,0.027736902,-0.019931704,0.056551933,3.4115656e-06,0.000742368,0.0017120334,0.0,0.0,0.0,0.024719238
0.0032308586,-0.0010005664,-0.00051560486,0.0073197223,0.0034187157,-0.015674654,0.0,0.0,0.0,0.13406494,-0.02487805,0.99066025,0.99097264,0.003365658,-0.13402271,-2.3283062e-10,-0.9996849,-0.02510468,0.0337224,0.00041900575,-0.040413857,0.0001720065,0.00074075116,0.001501404,0.0,0.0,0.0,0.024627686
-0.00023315288,-0.00033441023,0.00028378284,0.00092462264,0.006749496,-0.016607272,0.0,0.0,0.0,0.13406494,-0.02487805,0.99066025,0.99097264,0.003365658,-0.13402271,-2.3283062e-10,-0.9996849,-0.02510468,0.006189108,-0.0055665076,-0.028442383,0.00020209201,0.0007092149,0.001351685,0.0,0.0,0.0,0.024627686
0.00029977225,0.0007314398,-0.0002491423,0.004788328,0.0052839518,-0.016740503,0.0,0.0,0.0,0.13406494,-0.02487805,0.99066025,0.99097264,0.003365658,-0.13402271,-2.3283062e-10,-0.9996849,-0.02510468,-0.010570288,-0.022325918,-0.058369637,0.00014823012,0.0005940392,0.0010530784,0.0,0.0,0.0,0.02456665
-0.002231622,-0.00033441023,0.0022822511,0.0033227839,0.007682115,-0.013010029,0.0,0.0,0.0,0.13406494,-0.02487805,0.99066025,0.99097264,0.003365658,-0.13402271,-2.3283062e-10,-0.9996849,-0.02510468,-0.016555786,-0.015143305,-0.0009088516,6.4710046e-05,0.00051535247,0.0010432688,0.0,0.0,0.0,0.024627686
0.0005662348,-0.00246611,-0.0018479172,0.004788328,0.0055504143,-0.013542954,0.0,0.0,0.0,0.13406494,-0.02487805,0.99066025,0.99097264,0.003365658,-0.13402271,-2.3283062e-10,-0.9996849,-0.02510468,-0.005781889,-0.024720117,0.052960396,3.5477053e-05,0.00038917514,0.0013028545,0.0,0.0,0.0,0.024719238
-0.0006328467,-0.0008673352,-0.0017146859,0.0031895526,0.0094141215,-0.01207741,0.0,0.0,0.0,0.13406494,-0.02487805,0.99066025,0.99097264,0.003365658,-0.13402271,-2.3283062e-10,-0.9996849,-0.02510468,-0.04648328,-0.009157807,0.036201477,-0.00019711671,0.00034144023,0.0014773477,0.0,0.0,0.0,0.024719238
0.0012323894,0.0020637522,0.00015055155,0.002523398,0.005417183,-0.017673122,0.0,0.0,0.0,0.13406494,-0.02487805,0.99066025,0.99097264,0.003365658,-0.13402271,-2.3283062e-10,-0.9996849,-0.02510468,-0.018949986,0.00041900575,-0.011683464,-0.00029088106,0.00034182807,0.0014115436,0.0,0.0,0.0,0.024658203
0.0014988519,-0.00033441023,0.0008167075,0.0039889403,0.0034187157,-0.013276491,0.0,0.0,0.0,0.13406494,-0.02487805,0.99066025,0.99097264,0.003365658,-0.13402271,-2.3283062e-10,-0.9996849,-0.02510468,0.012174606,-0.004369393,0.023033142,-0.00022855362,0.00031827195,0.0015196516,0.0,0.0,0.0,0.024597168
0.00096592866,-0.002865804,0.0013496326,0.0055877157,0.0043513346,-0.011677716,0.0,0.0,0.0,0.13406494,-0.02487805,0.99066025,0.99097264,0.003365658,-0.13402271,-2.3283062e-10,-0.9996849,-0.02510468,-0.0033876896,0.009995803,0.044581413,-0.0002443493,0.0003666596,0.0017349605,0.0,0.0,0.0,0.024627686
0.00029977225,0.0012643647,-0.0021143795,0.0027898587,0.0034187157,-0.015008498,0.0,0.0,0.0,0.13406494,-0.02487805,0.99066025,0.99097264,0.003365658,-0.13402271,-2.3283062e-10,-0.9996849,-0.02510468,0.019357204,-0.00077809393,0.040989876,-0.00014634154,0.0003609358,0.0019312351,0.0,0.0,0.0,0.024627686
0.0006994661,0.0012643647,0.00041701412,0.0059874095,0.00821504,-0.0110115595,0.0,0.0,0.0,0.13406494,-0.02487805,0.99066025,0.99097264,0.003365658,-0.13402271,-2.3283062e-10,-0.9996849,-0.02510468,0.050481796,-0.0019751936,-0.004500389,0.00010679914,0.00034925516,0.001899077,0.0,0.0,0.0,0.02520752
0.0005662348,0.0035292956,0.00041701412,0.0006581601,0.005017489,-0.014475573,0.0,0.0,0.0,0.13406494,-0.02487805,0.99066025,0.99097264,0.003365658,-0.13402271,-2.3283062e-10,-0.9996849,-0.02510468,-0.0009934902,0.011192903,-0.004500389,0.00010129769,0.0004034734,0.0018670796,0.0,0.0,0.0,0.024658203
0.00029977225,0.00033174595,0.003614564,0.00292309,0.0075488836,-0.017273428,0.0,0.0,0.0,0.13406494,-0.02487805,0.99066025,0.99097264,0.003365658,-0.13402271,-2.3283062e-10,-0.9996849,-0.02510468,-0.014161587,0.018375516,-0.023653984,2.9983275e-05,0.0004933336,0.0017394744,0.0,0.0,0.0,0.024597168
-0.0006328467,0.0012643647,0.0008167075,0.006253872,0.0055504143,-0.013276491,0.0,0.0,0.0,0.13406494,-0.02487805,0.99066025,0.99097264,0.003365658,-0.13402271,-2.3283062e-10,-0.9996849,-0.02510468,0.008583307,-0.01514332,0.023033142,7.274989e-05,0.00041515037,0.0018459427,0.0,0.0,0.0,0.024658203
0.00029977225,-0.001267029,-0.00091529824,-0.0002744589,0.0036851782,-0.014742035,0.0,0.0,0.0,0.13406494,-0.02487805,0.99066025,0.99097264,0.003365658,-0.13402271,-2.3283062e-10,-0.9996849,-0.02510468,0.004992008,-0.025917217,0.056551933,9.734619e-05,0.00028348854,0.0021194727,0.0,0.0,0.0,0.024627686
0.0028311647,0.0015308273,0.002681945,0.004788328,0.006749496,-0.013676185,0.0,0.0,0.0,0.13406494,-0.02487805,0.99066025,0.99097264,0.003365658,-0.13402271,-2.3283062e-10,-0.9996849,-0.02510468,0.018160105,-0.016340405,-0.024851799,0.00018765999,0.00020036908,0.0019846165,0.0,0.0,0.0,0.024719238
0.002031777,-0.0016667226,-0.00011591101,0.0046550967,0.008881196,-0.017939584,0.0,0.0,0.0,0.13406494,-0.02487805,0.99066025,0.99097264,0.003365658,-0.13402271,-2.3283062e-10,-0.9996849,-0.02510468,0.0037949085,-0.039085314,-0.012879372,0.00020569624,3.940673e-06,0.0019102966,0.0,0.0,0.0,0.024658203
3.3309683e-05,-0.0021996475,-0.0013149921,0.0034560151,0.009014428,-0.013809416,0.0,0.0,0.0,0.13406494,-0.02487805,0.99066025,0.99097264,0.003365658,-0.13402271,-2.3283062e-10,-0.9996849,-0.02510468,0.009780407,0.015981302,-0.02245617,0.0002535698,8.382748e-05,0.0017884643,0.0,0.0,0.0,0.024627686
0.0010991581,0.0007314398,0.002681945,0.001990473,0.0051507205,-0.017273428,0.0,0.0,0.0,0.13406494,-0.02487805,0.99066025,0.99097264,0.003365658,-0.13402271,-2.3283062e-10,-0.9996849,-0.02510468,-0.014161587,-0.012749106,0.009864807,0.00018149402,1.966281e-05,0.0018288459,0.0,0.0,0.0,0.024658203
0.00043300353,-0.0014002601,-0.0019811485,0.002523398,0.0060833395,-0.012343872,0.0,0.0,0.0,0.13406494,-0.02487805,0.99066025,0.99097264,0.003365658,-0.13402271,-2.3283062e-10,-0.9996849,-0.02510468,0.057664394,-0.028311417,-0.0068941116,0.00046890852,-0.000121992576,0.0017852312,0.0,0.0,0.0,0.024627686
-0.002231622,-0.0043313475,-0.0026473044,0.001590779,0.0074156523,-0.013676185,0.0,0.0,0.0,0.13406494,-0.02487805,0.99066025,0.99097264,0.003365658,-0.13402271,-2.3283062e-10,-0.9996849,-0.02510468,-0.020147204,0.0028132051,0.03979206,0.00036582796,-0.000107316584,0.0019752653,0.0,0.0,0.0,0.024627686
0.00043300353,-0.002865804,-0.0015814546,0.0022569355,0.0071491897,-0.01420911,0.0,0.0,0.0,0.13406494,-0.02487805,0.99066025,0.99097264,0.003365658,-0.13402271,-2.3283062e-10,-0.9996849,-0.02510468,-0.017753005,-0.0031723082,0.051763535,0.0002752338,-0.00012264155,0.0022242067,0.0,0.0,0.0,0.02468872
0.0021650083,-0.0021996475,-0.0010485295,0.0037224777,0.0052839518,-0.012743566,0.0,0.0,0.0,0.13406494,-0.02487805,0.99066025,0.99097264,0.003365658,-0.13402271,-2.3283062e-10,-0.9996849,-0.02510468,-0.026132584,-0.033099815,0.013456345,0.0001431947,-0.00028752742,0.0022803675,0.0,0.0,0.0,0.025482178
0.0017653145,-0.0037984224,-0.0017146859,0.005321253,0.0074156523,-0.015674654,0.0,0.0,0.0,0.13406494,-0.02487805,0.99066025,0.99097264,0.003365658,-0.13402271,-2.3283062e-10,-0.9996849,-0.02510468,-0.008176088,0.0052074045,0.029019356,0.00010159829,-0.00026005277,0.0024140626,0.0,0.0,0.0,0.025177002
-0.0020983908,-0.0008673352,0.0012164013,0.0031895526,0.0051507205,-0.014608804,0.0,0.0,0.0,0.13406494,-0.02487805,0.99066025,0.99097264,0.003365658,-0.13402271,-2.3283062e-10,-0.9996849,-0.02510468,0.0373137,0.015981302,-0.02844143,0.0002876588,-0.00017884598,0.002259785,0.0,0.0,0.0,0.025115967
0.0022982396,-0.0029990352,0.0014828639,0.0003916975,0.0074156523,-0.0128767975,0.0,0.0,0.0,0.13406494,-0.02487805,0.99066025,0.99097264,0.003365658,-0.13402271,-2.3283062e-10,-0.9996849,-0.02510468,-0.016555786,-0.01634042,-0.0033025742,0.0002034416,-0.00025965384,0.0022319735,0.0,0.0,0.0,0.025238037
-0.002231622,0.0005982085,0.0013496326,0.001990473,0.008881196,-0.01314326,0.0,0.0,0.0,0.13406494,-0.02487805,0.99066025,0.99097264,0.003365658,-0.13402271,-2.3283062e-10,-0.9996849,-0.02510468,-0.027329803,-0.016340405,-0.012879372,6.5775384e-05,-0.0003400576,0.002156417,0.0,0.0,0.0,0.024993896
-0.0006328467,0.0017972896,-0.0021143795,0.0013243165,0.0060833395,-0.014342342,0.0,0.0,0.0,0.13406494,-0.02487805,0.99066025,0.99097264,0.003365658,-0.13402271,-2.3283062e-10,-0.9996849,-0.02510468,-0.060848594,0.025558129,-0.034427643,-0.00023879646,-0.00021056668,0.0019734965,0.0,0.0,0.0,0.024597168
0.00016654097,-6.794778e-05,-0.00078206696,-7.996336e-06,0.0094141215,-0.0119441785,0.0,0.0,0.0,0.13406494,-0.02487805,0.99066025,0.99097264,0.003365658,-0.13402271,-2.3283062e-10,-0.9996849,-0.02510468,-0.023738384,0.017178416,-0.030837059,-0.0003562944,-0.00012362178,0.0018094438,0.0,0.0,0.0,0.024658203
0.0014988519,-6.794778e-05,-0.00011591101,0.0023901667,0.0071491897,-0.015541423,0.0,0.0,0.0,0.13406494,-0.02487805,0.99066025,0.99097264,0.003365658,-0.13402271,-2.3283062e-10,-0.9996849,-0.02510468,-0.011767387,-0.018734619,0.013455391,-0.00041334986,-0.00021667677,0.0018676736,0.0,0.0,0.0,0.02468872
0.0028311647,0.00046497723,-0.002380842,0.003855709,0.006349802,-0.013809416,0.0,0.0,0.0,0.13406494,-0.02487805,0.99066025,0.99097264,0.003365658,-0.13402271,-2.3283062e-10,-0.9996849,-0.02510468,-0.016555786,-0.0019752085,-0.010485649,-0.000494062,-0.00022546943,0.001805907,0.0,0.0,0.0,0.024658203
0.00043300353,0.0032628335,0.00028378284,0.0041221716,0.008747965,-0.014875267,0.0,0.0,0.0,0.13406494,-0.02487805,0.99066025,0.99097264,0.003365658,-0.13402271,-2.3283062e-10,-0.9996849,-0.02510468,-0.005781889,-0.0019751936,-0.015274048,-0.0005205011,-0.00023421804,0.0017205073,0.0,0.0,0.0,0.024627686
0.00043300353,0.0019305209,-0.0002491423,0.005188022,0.0042181034,-0.019405128,0.0,0.0,0.0,0.13406494,-0.02487805,0.99066025,0.99097264,0.003365658,-0.13402271,-2.3283062e-10,-0.9996849,-0.02510468,0.028934002,0.031543627,0.0433836,-0.00037322857,-7.5328804e-05,0.0019288227,0.0,0.0,0.0,0.024627686
-9.99216e-05,0.0024634458,0.0021490199,0.002523398,0.0075488836,-0.015541423,0.0,0.0,0.0,0.13406494,-0.02487805,0.99066025,0.99097264,0.003365658,-0.13402271,-2.3283062e-10,-0.9996849,-0.02510468,-0.018950105,0.032740727,-0.023653984,-0.00046611295,8.8751476e-05,0.0018009087,0.0,0.0,0.0,0.025177002
0.00029977225,-0.0014002601,0.00041701412,0.00092462264,0.010879666,-0.013809416,0.0,0.0,0.0,0.13406494,-0.02487805,0.99066025,0.99097264,0.003365658,-0.13402271,-2.3283062e-10,-0.9996849,-0.02510468,0.004992008,0.036332026,0.0338068,-0.00043882235,0.00026996786,0.0019609383,0.0,0.0,0.0,0.024963379
0.0013656206,-0.0010005664,-0.00051560486,0.0027898587,0.004617797,-0.015141729,0.0,0.0,0.0,0.13406494,-0.02487805,0.99066025,0.99097264,0.003365658,-0.13402271,-2.3283062e-10,-0.9996849,-0.02510468,-0.029724002,0.032740727,-0.0547781,-0.0005852482,0.00043232166,0.001677243,0.0,0.0,0.0,0.024749756
0.00016654097,0.0020637522,-0.0035799232,0.001590779,0.0064830333,-0.013942648,0.0,0.0,0.0,0.13406494,-0.02487805,0.99066025,0.99097264,0.003365658,-0.13402271,-2.3283062e-10,-0.9996849,-0.02510468,-0.009373188,-0.013946205,-0.0033035278,-0.00062918797,0.00036042903,0.0016523392,0.0,0.0,0.0,0.024597168
-0.0014322344,0.001397596,-0.00078206696,0.001990473,0.0062165707,-0.015408192,0.0,0.0,0.0,0.13406494,-0.02487805,0.99066025,0.99097264,0.003365658,-0.13402271,-2.3283062e-10,-0.9996849,-0.02510468,0.0037949085,0.00041900575,0.014653206,-0.0006070675,0.00036072193,0.0017173436,0.0,0.0,0.0,0.024627686
0.00096592866,-0.0027325726,0.00015055155,0.0017240103,0.0020864028,-0.014742035,0.0,0.0,0.0,0.13406494,-0.02487805,0.99066025,0.99097264,0.003365658,-0.13402271,-2.3283062e-10,-0.9996849,-0.02510468,-0.030920982,-0.012749106,0.029018402,-0.00075863703,0.0002951728,0.0018538489,0.0,0.0,0.0,0.024597168
0.0008326974,0.0024634458,0.0009499388,0.0027898587,0.004084872,-0.014875267,0.0,0.0,0.0,0.13406494,-0.02487805,0.99066025,0.99097264,0.003365658,-0.13402271,-2.3283062e-10,-0.9996849,-0.02510468,0.026539803,-0.011552006,-0.0452013,-0.00062214484,0.00023593691,0.0016185732,0.0,0.0,0.0,0.024658203
0.00043300353,0.0009979021,0.00015055155,-0.0013403092,0.0071491897,-0.015674654,0.0,0.0,0.0,0.13406494,-0.02487805,0.99066025,0.99097264,0.003365658,-0.13402271,-2.3283062e-10,-0.9996849,-0.02510468,-0.014161587,-0.045070812,0.029019356,-0.00068984204,9.403171e-06,0.0017555772,0.0,0.0,0.0,0.02468872
-0.0006328467,0.0015308273,1.7320272e-05,0.0033227839,0.0064830333,-0.016074346,0.0,0.0,0.0,0.13406494,-0.02487805,0.99066025,0.99097264,0.003365658,-0.13402271,-2.3283062e-10,-0.9996849,-0.02510468,0.013371706,0.012390003,0.014653206,-0.0006195343,7.130617e-05,0.0018200653,0.0,0.0,0.0,0.024627686
-0.0006328467,-0.0017999539,-0.002380842,0.0033227839,0.004484566,-0.0128767975,0.0,0.0,0.0,0.13406494,-0.02487805,0.99066025,0.99097264,0.003365658,-0.13402271,-2.3283062e-10,-0.9996849,-0.02510468,-0.016555786,0.014784202,-0.0068941116,-0.0006992155,0.00014487065,0.0017764944,0.0,0.0,0.0,0.024658203
-0.0036971644,-0.0014002601,-0.0022476108,0.002523398,0.009147659,-0.014875267,0.0,0.0,0.0,0.13406494,-0.02487805,0.99066025,0.99097264,0.003365658,-0.13402271,-2.3283062e-10,-0.9996849,-0.02510468,-0.054863095,-0.01514332,-0.049990654,-0.0009700349,6.84297e-05,0.0015176587,0.0,0.0,0.0,0.024597168
-0.0008993093,-0.0015334914,-0.0015814546,0.0050547905,0.006349802,-0.015408192,0.0,0.0,0.0,0.13406494,-0.02487805,0.99066025,0.99097264,0.003365658,-0.13402271,-2.3283062e-10,-0.9996849,-0.02510468,-0.047680497,-0.061830238,-0.0068941116,-0.0012035873,-0.00024106364,0.0014755998,0.0,0.0,0.0,0.024627686
-0.0008993093,-0.0019331852,0.00015055155,0.006120641,0.0062165707,-0.014342342,0.0,0.0,0.0,0.13406494,-0.02487805,0.99066025,0.99097264,0.003365658,-0.13402271,-2.3283062e-10,-0.9996849,-0.02510468,-0.0393008,0.009995803,-0.027245522,-0.0013940732,-0.0001898793,0.0013319943,0.0,0.0,0.0,0.025360107
0.0006994661,-0.001267029,-0.0002491423,0.0027898587,0.0066162646,-0.013942648,0.0,0.0,0.0,0.13406494,-0.02487805,0.99066025,0.99097264,0.003365658,-0.13402271,-2.3283062e-10,-0.9996849,-0.02510468,0.012174606,0.00041900575,-0.02245617,-0.0013262299,-0.00018683488,0.0012130535,0.0,0.0,0.0,0.024719238
0.0018985458,0.00033174595,-0.0015814546,0.0022569355,0.0074156523,-0.014075879,0.0,0.0,0.0,0.13406494,-0.02487805,0.99066025,0.99097264,0.003365658,-0.13402271,-2.3283062e-10,-0.9996849,-0.02510468,-0.022541285,-0.010354906,0.008667946,-0.0014323052,-0.00023767524,0.0012503279,0.0,0.0,0.0,0.024627686
-0.0011657719,-0.0011337977,-0.0015814546,0.003855709,0.005417183,-0.01753989,0.0,0.0,0.0,0.13406494,-0.02487805,0.99066025,0.99097264,0.003365658,-0.13402271,-2.3283062e-10,-0.9996849,-0.02510468,0.052875996,0.044711724,0.012259483,-0.0011607637,-1.2928242e-05,0.0013053737,0.0,0.0,0.0,0.02456665
0.0021650083,-0.0020664164,-0.0014482234,0.0018572416,0.005017489,-0.016740503,0.0,0.0,0.0,0.13406494,-0.02487805,0.99066025,0.99097264,0.003365658,-0.13402271,-2.3283062e-10,-0.9996849,-0.02510468,0.006189108,-0.004369408,0.018244743,-0.0011240144,-3.471064e-05,0.0013900707,0.0,0.0,0.0,0.024597168
-0.001698697,0.0005982085,-0.0011817608,0.0026566274,0.0070159584,-0.015008498,0.0,0.0,0.0,0.13406494,-0.02487805,0.99066025,0.99097264,0.003365658,-0.13402271,-2.3283062e-10,-0.9996849,-0.02510468,0.009780407,0.018375501,-0.004500389,-0.0010694923,5.7340418e-05,0.0013606184,0.0,0.0,0.0,0.024597168
0.0005662348,-0.0014002601,0.0010831701,0.001590779,0.003551947,-0.015807886,0.0,0.0,0.0,0.13406494,-0.02487805,0.99066025,0.99097264,0.003365658,-0.13402271,-2.3283062e-10,-0.9996849,-0.02510468,0.0037949085,-0.018734619,0.012259483,-0.0010451704,-3.6619378e-05,0.0014151128,0.0,0.0,0.0,0.024719238
0.0014988519,-0.0010005664,-0.0010485295,0.0011910852,0.0064830333,-0.016740503,0.0,0.0,0.0,0.13406494,-0.02487805,0.99066025,0.99097264,0.003365658,-0.13402271,-2.3283062e-10,-0.9996849,-0.02510468,0.044496298,0.030346528,-0.0068941116,-0.000817463,0.00011529635,0.0013735666,0.0,0.0,0.0,0.024627686
0.0040302463,-6.794778e-05,0.00015055155,0.0023901667,0.007282421,-0.014608804,0.0,0.0,0.0,0.13406494,-0.02487805,0.99066025,0.99097264,0.003365658,-0.13402271,-2.3283062e-10,-0.9996849,-0.02510468,0.010977507,0.012390003,-0.028442383,-0.00075848814,0.00017666988,0.0012244869,0.0,0.0,0.0,0.024627686
0.0008326974,-0.00073410396,0.0012164013,0.0039889403,0.007948577,-0.014342342,0.0,0.0,0.0,0.13406494,-0.02487805,0.99066025,0.99097264,0.003365658,-0.13402271,-2.3283062e-10,-0.9996849,-0.02510468,0.0025978088,-0.033099815,0.009864807,-0.00074170664,1.0287462e-05,0.0012676885,0.0,0.0,0.0,0.024597168
0.0008326974,-0.001267029,-0.0017146859,0.0014575478,0.007682115,-0.015541423,0.0,0.0,0.0,0.13406494,-0.02487805,0.99066025,0.99097264,0.003365658,-0.13402271,-2.3283062e-10,-0.9996849,-0.02510468,0.06364989,0.031543627,0.01585102,-0.00041974866,0.00016795416,0.0013406051,0.0,0.0,0.0,0.024627686
-0.00023315288,-0.00020117895,-0.0002491423,0.0034560151,0.0075488836,-0.012343872,0.0,0.0,0.0,0.13406494,-0.02487805,0.99066025,0.99097264,0.003365658,-0.13402271,-2.3283062e-10,-0.9996849,-0.02510468,0.045693398,-0.029508516,-0.015274048,-0.00018918295,1.9571802e-05,0.0012575319,0.0,0.0,0.0,0.024627686
-0.0015654657,-0.0016667226,-0.0018479172,0.0045218654,0.0034187157,-0.015674654,0.0,0.0,0.0,0.13406494,-0.02487805,0.99066025,0.99097264,0.003365658,-0.13402271,-2.3283062e-10,-0.9996849,-0.02510468,0.012174606,-0.0067636073,-0.017668724,-0.000127364,-1.4344094e-05,0.0011629006,0.0,0.0,0.0,0.025390625
0.00016654097,-0.004064885,0.00015055155,0.0027898587,0.005950108,-0.015674654,0.0,0.0,0.0,0.13406494,-0.02487805,0.99066025,0.99097264,0.003365658,-0.13402271,-2.3283062e-10,-0.9996849,-0.02510468,-0.0321182,-0.0067636073,0.01585102,-0.0002873182,-4.809041e-05,0.0012363412,0.0,0.0,0.0,0.024658203
-0.00049961545,0.00019851467,0.0022822511,0.004255403,0.0074156523,-0.013542954,0.0,0.0,0.0,0.13406494,-0.02487805,0.99066025,0.99097264,0.003365658,-0.13402271,-2.3283062e-10,-0.9996849,-0.02510468,0.0014007092,-0.034296915,0.038596153,-0.00027887805,-0.00021933453,0.0014231403,0.0,0.0,0.0,0.024597168
-0.0015654657,0.00033174595,0.00015055155,0.0006581601,0.0055504143,-0.01420911,0.0,0.0,0.0,0.13406494,-0.02487805,0.99066025,0.99097264,0.003365658,-0.13402271,-2.3283062e-10,-0.9996849,-0.02510468,-0.016555786,0.00041900575,0.0026826859,-0.00036026258,-0.00021614283,0.001429438,0.0,0.0,0.0,0.02456665
-0.00036638416,-0.0010005664,-0.0002491423,0.0031895526,0.0036851782,-0.015807886,0.0,0.0,0.0,0.13406494,-0.02487805,0.99066025,0.99097264,0.003365658,-0.13402271,-2.3283062e-10,-0.9996849,-0.02510468,0.0025978088,0.023163915,0.064930916,-0.00034547222,-9.924254e-05,0.0017469453,0.0,0.0,0.0,0.024627686
0.0016320832,-0.0006008727,-0.0002491423,0.0034560151,0.008081809,-0.014875267,0.0,0.0,0.0,0.13406494,-0.02487805,0.99066025,0.99097264,0.003365658,-0.13402271,-2.3283062e-10,-0.9996849,-0.02510468,0.016963005,-0.031902716,-0.0033025742,-0.00025892982,-0.00025825988,0.0017216977,0.0,0.0,0.0,0.024749756
-0.0010325406,0.004328683,-0.0013149921,0.0014575478,0.003951641,-0.014742035,0.0,0.0,0.0,0.13406494,-0.02487805,0.99066025,0.99097264,0.003365658,-0.13402271,-2.3283062e-10,-0.9996849,-0.02510468,-0.052468896,0.013587117,-0.035624504,-0.0005199796,-0.00018903299,0.0015349668,0.0,0.0,0.0,0.024658203
0.002031777,0.00019851467,-0.0017146859,0.0003916975,0.0056836456,-0.013409723,0.0,0.0,0.0,0.13406494,-0.02487805,0.99066025,0.99097264,0.003365658,-0.13402271,-2.3283062e-10,-0.9996849,-0.02510468,0.0325253,-0.036691114,-0.009288788,-0.00035475323,-0.0003715434,0.0014808481,0.0,0.0,0.0,0.024658203
0.0028311647,-0.0004676415,0.0028151763,0.00079139136,0.005417183,-0.016607272,0.0,0.0,0.0,0.13406494,-0.02487805,0.99066025,0.99097264,0.003365658,-0.13402271,-2.3283062e-10,-0.9996849,-0.02510468,-0.012964487,-0.0019751936,-0.055975914,-0.0004178019,-0.00037956165,0.0011935643,0.0,0.0,0.0,0.024597168
0.0010991581,0.0017972896,0.0016160952,0.0003916975,0.00821504,-0.013809416,0.0,0.0,0.0,0.13406494,-0.02487805,0.99066025,0.99097264,0.003365658,-0.13402271,-2.3283062e-10,-0.9996849,-0.02510468,0.0337224,0.017178416,0.007470131,-0.0002471009,-0.00029177178,0.0012249472,0.0,0.0,0.0,0.024597168
0.0010991581,-0.00020117895,0.00321487,0.0011910852,0.0020864028,-0.015274961,0.0,0.0,0.0,0.13406494,-0.02487805,0.99066025,0.99097264,0.003365658,-0.13402271,-2.3283062e-10,-0.9996849,-0.02510468,0.00020360947,-0.012749121,0.00028800964,-0.00024484732,-0.00035405852,0.0012202625,0.0,0.0,0.0,0.02468872
-0.0012990031,-0.0036651911,-0.0010485295,0.0027898587,0.005417183,-0.014608804,0.0,0.0,0.0,0.13406494,-0.02487805,0.99066025,0.99097264,0.003365658,-0.13402271,-2.3283062e-10,-0.9996849,-0.02510468,0.0373137,0.049500138,0.058945656,-5.7054596e-05,-0.00010478753,0.0015088895,0.0,0.0,0.0,0.024810791
0.0017653145,0.0011311334,-0.0014482234,0.0003916975,0.005417183,-0.016607272,0.0,0.0,0.0,0.13406494,-0.02487805,0.99066025,0.99097264,0.003365658,-0.13402271,-2.3283062e-10,-0.9996849,-0.02510468,-0.0033876896,-0.0019751936,-0.014077187,-7.370777e-05,-0.00011413956,0.0014309591,0.0,0.0,0.0,0.025360107
0.0025647022,0.0005982085,0.00041701412,0.0014575478,0.0066162646,-0.012610335,0.0,0.0,0.0,0.13406494,-0.02487805,0.99066025,0.99097264,0.003365658,-0.13402271,-2.3283062e-10,-0.9996849,-0.02510468,-0.07641089,-0.041479543,-0.052384377,-0.0004553937,-0.0003209666,0.0011618824,0.0,0.0,0.0,0.02468872
0.00043300353,0.0024634458,0.005080107,0.00292309,0.0034187157,-0.015141729,0.0,0.0,0.0,0.13406494,-0.02487805,0.99066025,0.99097264,0.003365658,-0.13402271,-2.3283062e-10,-0.9996849,-0.02510468,-0.016555786,-0.01753752,0.0074710846,-0.00053589564,-0.00040704935,0.0011934285,0.0,0.0,0.0,0.024627686
0.0016320832,-0.0010005664,-0.00064883614,0.0003916975,0.0094141215,-0.017006965,0.0,0.0,0.0,0.13406494,-0.02487805,0.99066025,0.99097264,0.003365658,-0.13402271,-2.3283062e-10,-0.9996849,-0.02510468,0.004992008,-0.031902716,-0.002105713,-0.00050825614,-0.0005645277,0.0011769328,0.0,0.0,0.0,0.024627686
0.0022982396,-0.0025993413,0.00015055155,0.0018572416,0.006349802,-0.013809416,0.0,0.0,0.0,0.13406494,-0.02487805,0.99066025,0.99097264,0.003365658,-0.13402271,-2.3283062e-10,-0.9996849,-0.02510468,-0.0404979,-0.028311417,-0.021260262,-0.00070820434,-0.0007032621,0.0010647469,0.0,0.0,0.0,0.024658203
-0.0019651596,-0.0037984224,-0.002380842,0.0022569355,0.0056836456,-0.012610335,0.0,0.0,0.0,0.13406494,-0.02487805,0.99066025,0.99097264,0.003365658,-0.13402271,-2.3283062e-10,-0.9996849,-0.02510468,-0.0393008,0.009995803,0.00028896332,-0.00090116734,-0.00064976676,0.001060868,0.0,0.0,0.0,0.024658203
0.00043300353,0.00033174595,-0.00038237358,-0.0009406153,0.009147659,-0.011677716,0.0,0.0,0.0,0.13406494,-0.02487805,0.99066025,0.99097264,0.003365658,-0.13402271,-2.3283062e-10,-0.9996849,-0.02510468,-0.06683409,-0.023523018,-0.01647091,-0.001230832,-0.00076413306,0.00097320916,0.0,0.0,0.0,0.024597168
3.3309683e-05,0.0015308273,-0.00091529824,0.0005249288,0.007282421,-0.015008498,0.0,0.0,0.0,0.13406494,-0.02487805,0.99066025,0.99097264,0.003365658,-0.13402271,-2.3283062e-10,-0.9996849,-0.02510468,0.015765905,-0.01753752,-0.008091927,-0.0011458483,-0.000848,0.0009278835,0.0,0.0,0.0,0.024658203
-0.00036638416,0.0007314398,-0.0002491423,0.005854178,0.0071491897,-0.018206047,0.0,0.0,0.0,0.13406494,-0.02487805,0.99066025,0.99097264,0.003365658,-0.13402271,-2.3283062e-10,-0.9996849,-0.02510468,0.00020360947,0.023163915,0.03260994,-0.001139101,-0.0007279404,0.0010862937,0.0,0.0,0.0,0.02456665
-0.000766078,-0.0027325726,0.0024154824,0.0023901667,0.0066162646,-0.015008498,0.0,0.0,0.0,0.13406494,-0.02487805,0.99066025,0.99097264,0.003365658,-0.13402271,-2.3283062e-10,-0.9996849,-0.02510468,-0.045286298,0.018375516,0.023033142,-0.001359837,-0.0006324231,0.001196028,0.0,0.0,0.0,0.024597168
0.0006994661,0.00086467084,1.7320272e-05,0.0039889403,0.0070159584,-0.014875267,0.0,0.0,0.0,0.13406494,-0.02487805,0.99066025,0.99097264,0.003365658,-0.13402271,-2.3283062e-10,-0.9996849,-0.02510468,-0.059651494,0.0028132051,0.00028800964,-0.0016512953,-0.00061519496,0.0011914879,0.0,0.0,0.0,0.024719238
0.002031777,0.00019851467,-0.0002491423,0.0023901667,0.007282421,-0.017006965,0.0,0.0,0.0,0.13406494,-0.02487805,0.99066025,0.99097264,0.003365658,-0.13402271,-2.3283062e-10,-0.9996849,-0.02510468,0.0349195,0.017178416,-0.009288788,-0.0014684413,-0.0005262269,0.0011390866,0.0,0.0,0.0,0.02557373
0.0010991581,-0.0010005664,-0.0002491423,0.005321253,0.0052839518,-0.013942648,0.0,0.0,0.0,0.13406494,-0.02487805,0.99066025,0.99097264,0.003365658,-0.13402271,-2.3283062e-10,-0.9996849,-0.02510468,-0.0069789886,0.0195726,-0.023653984,-0.001495994,-0.00042573272,0.0010151212,0.0,0.0,0.0,0.02532959
0.0014988519,0.0012643647,-0.00011591101,0.00012523495,0.0064830333,-0.01420911,0.0,0.0,0.0,0.13406494,-0.02487805,0.99066025,0.99097264,0.003365658,-0.13402271,-2.3283062e-10,-0.9996849,-0.02510468,-0.014161587,-0.009157792,0.025427818,-0.001559322,-0.00046939304,0.0011371847,0.0,0.0,0.0,0.025299072
0.0014988519,0.0020637522,-0.00064883614,0.0046550967,0.0064830333,-0.015274961,0.0,0.0,0.0,0.13406494,-0.02487805,0.99066025,0.99097264,0.003365658,-0.13402271,-2.3283062e-10,-0.9996849,-0.02510468,-0.0045847893,0.011192903,-0.047595978,-0.0015744494,-0.00041108156,0.00089351885,0.0,0.0,0.0,0.025146484
-0.0018319283,0.0019305209,-0.0017146859,0.005188022,0.0070159584,-0.015941115,0.0,0.0,0.0,0.13406494,-0.02487805,0.99066025,0.99097264,0.003365658,-0.13402271,-2.3283062e-10,-0.9996849,-0.02510468,0.019357204,0.004010305,0.0074710846,-0.001469791,-0.00038897464,0.00092640665,0.0,0.0,0.0,0.024993896
0.00029977225,0.0005982085,-0.00091529824,0.005188022,0.0060833395,-0.013409723,0.0,0.0,0.0,0.13406494,-0.02487805,0.99066025,0.99097264,0.003365658,-0.13402271,-2.3283062e-10,-0.9996849,-0.02510468,-0.0404979,0.011192903,-0.012879372,-0.0016649317,-0.00033106527,0.0008573777,0.0,0.0,0.0,0.024658203
0.0008326974,0.00086467084,0.0014828639,0.004255403,0.0051507205,-0.013542954,0.0,0.0,0.0,0.13406494,-0.02487805,0.99066025,0.99097264,0.003365658,-0.13402271,-2.3283062e-10,-0.9996849,-0.02510468,0.0313282,0.026755229,0.02782154,-0.001499966,-0.0001956338,0.0009921985,0.0,0.0,0.0,0.024658203
-0.0024980847,-0.0055304286,-0.0013149921,0.0021237042,0.0052839518,-0.011810947,0.0,0.0,0.0,0.13406494,-0.02487805,0.99066025,0.99097264,0.003365658,-0.13402271,-2.3283062e-10,-0.9996849,-0.02510468,0.0349195,-0.021128818,0.009864807,-0.0013178687,-0.00030029973,0.0010365614,0.0,0.0,0.0,0.024658203
-9.99216e-05,-0.0017999539,0.0017493265,-0.00054092146,0.0030190218,-0.013809416,0.0,0.0,0.0,0.13406494,-0.02487805,0.99066025,0.99097264,0.003365658,-0.13402271,-2.3283062e-10,-0.9996849,-0.02510468,-0.0069789886,-0.033099815,-0.06674957,-0.0013461743,-0.0004642973,0.0006976308,0.0,0.0,0.0,0.024719238
0.004829634,-0.00246611,-0.0027805357,0.0045218654,0.006882727,-0.014742035,0.0,0.0,0.0,0.13406494,-0.02487805,0.99066025,0.99097264,0.003365658,-0.13402271,-2.3283062e-10,-0.9996849,-0.02510468,-0.027329803,-0.017537504,-0.02245617,-0.0014760924,-0.0005496633,0.0005818618,0.0,0.0,0.0,0.02468872
0.00043300353,-0.0008673352,0.0018825573,0.0046550967,0.006882727,-0.014742035,0.0,0.0,0.0,0.13406494,-0.02487805,0.99066025,0.99097264,0.003365658,-0.13402271,-2.3283062e-10,-0.9996849,-0.02510468,0.040905,0.009995803,-0.03682232,-0.0012641869,-0.000496936,0.0003948409,0.0,0.0,0.0,0.024627686
3.3309683e-05,0.0009979021,0.00015055155,0.0033227839,0.007282421,-0.015807886,0.0,0.0,0.0,0.13406494,-0.02487805,0.99066025,0.99097264,0.003365658,-0.13402271,-2.3283062e-10,-0.9996849,-0.02510468,-0.0069789886,-0.0055664927,-0.01647091,-0.001292761,-0.0005222838,0.00031051214,0.0,0.0,0.0,0.02468872
-0.0006328467,-0.00073410396,0.0008167075,0.0041221716,0.006349802,-0.0128767975,0.0,0.0,0.0,0.13406494,-0.02487805,0.99066025,0.99097264,0.003365658,-0.13402271,-2.3283062e-10,-0.9996849,-0.02510468,-0.0009934902,-0.024720117,-0.06674957,-0.0012912645,-0.00064327294,-2.4788285e-05,0.0,0.0,0.0,0.025421143
0.0021650083,-0.0014002601,-0.0033134609,0.0045218654,0.003951641,-0.015941115,0.0,0.0,0.0,0.13406494,-0.02487805,0.99066025,0.99097264,0.003365658,-0.13402271,-2.3283062e-10,-0.9996849,-0.02510468,-0.012964487,0.032740727,0.040989876,-0.0013496306,-0.00047635293,0.00018028503,0.0,0.0,0.0,0.02468872
-0.00023315288,-0.0025993413,0.0029484075,0.002523398,0.004084872,-0.015941115,0.0,0.0,0.0,0.13406494,-0.02487805,0.99066025,0.99097264,0.003365658,-0.13402271,-2.3283062e-10,-0.9996849,-0.02510468,-0.017753005,0.011192918,-0.017668724,-0.0014316476,-0.00041800656,9.104e-05,0.0,0.0,0.0,0.024627686
-9.99216e-05,-0.0006008727,-0.00078206696,0.0005249288,0.004884258,-0.015008498,0.0,0.0,0.0,0.13406494,-0.02487805,0.99066025,0.99097264,0.003365658,-0.13402271,-2.3283062e-10,-0.9996849,-0.02510468,-0.03570938,-0.015143305,0.02183628,-0.0016030362,-0.0004916331,0.0001997662,0.0,0.0,0.0,0.02456665
-9.99216e-05,-0.00073410396,0.0021490199,0.0010578539,0.006882727,-0.014608804,0.0,0.0,0.0,0.13406494,-0.02487805,0.99066025,0.99097264,0.003365658,-0.13402271,-2.3283062e-10,-0.9996849,-0.02510468,-0.020147085,0.004010305,0.020638466,-0.0016957565,-0.0004691234,0.0003019597,0.0,0.0,0.0,0.02468872
0.00043300353,0.0021969832,-0.0019811485,0.005720947,0.0052839518,-0.01647404,0.0,0.0,0.0,0.13406494,-0.02487805,0.99066025,0.99097264,0.003365658,-0.13402271,-2.3283062e-10,-0.9996849,-0.02510468,-0.012964487,0.053091437,0.05415821,-0.0017521001,-0.0002013206,0.00057124096,0.0,0.0,0.0,0.024719238
0.002031777,0.0007314398,0.0005502454,0.004255403,0.0074156523,-0.013942648,0.0,0.0,0.0,0.13406494,-0.02487805,0.99066025,0.99097264,0.003365658,-0.13402271,-2.3283062e-10,-0.9996849,-0.02510468,0.022948503,-0.00077809393,0.058945656,-0.001628597,-0.00020420447,0.00086311303,0.0,0.0,0.0,0.024658203
0.0033640899,-0.00020117895,-0.0010485295,-0.00054092146,0.004484566,-0.016740503,0.0,0.0,0.0,0.13406494,-0.02487805,0.99066025,0.99097264,0.003365658,-0.13402271,-2.3283062e-10,-0.9996849,-0.02510468,0.008583307,-0.004369393,0.013456345,-0.0015775375,-0.00022503041,0.00092607917,0.0,0.0,0.0,0.024627686
0.002031777,0.0040622205,-0.0018479172,0.0054544844,0.0056836456,-0.015541423,0.0,0.0,0.0,0.13406494,-0.02487805,0.99066025,0.99097264,0.003365658,-0.13402271,-2.3283062e-10,-0.9996849,-0.02510468,0.009780407,0.0052074045,0.0050764084,-0.0015207478,-0.00019786824,0.0009468308,0.0,0.0,0.0,0.02456665
-0.000766078,0.00086467084,0.00041701412,0.0041221716,0.009014428,-0.015274961,0.0,0.0,0.0,0.13406494,-0.02487805,0.99066025,0.99097264,0.003365658,-0.13402271,-2.3283062e-10,-0.9996849,-0.02510468,-0.0045847893,0.024361014,-0.0021066666,-0.0015360679,-7.507383e-05,0.0009315633,0.0,0.0,0.0,0.024658203
0.0005662348,0.0005982085,-0.00051560486,0.0018572416,0.0084815025,-0.015807886,0.0,0.0,0.0,0.13406494,-0.02487805,0.99066025,0.99097264,0.003365658,-0.13402271,-2.3283062e-10,-0.9996849,-0.02510468,0.056467295,0.009995818,-0.0033035278,-0.001246051,-2.4719375e-05,0.00091038784,0.0,0.0,0.0,0.024993896
-0.00049961545,-0.0008673352,-0.00091529824,0.0027898587,0.0023528654,-0.016740503,0.0,0.0,0.0,0.13406494,-0.02487805,0.99066025,0.99097264,0.003365658,-0.13402271,-2.3283062e-10,-0.9996849,-0.02510468,-0.024935484,0.025558114,0.012259483,-0.0013644983,0.00010319479,0.0009671333,0.0,0.0,0.0,0.025238037
0.0012323894,0.0021969832,-0.00078206696,0.00292309,0.006882727,-0.018339278,0.0,0.0,0.0,0.13406494,-0.02487805,0.99066025,0.99097264,0.003365658,-0.13402271,-2.3283062e-10,-0.9996849,-0.02510468,0.0037949085,0.031543627,0.03979206,-0.0013387012,0.00026039695,0.001161258,0.0,0.0,0.0,0.025390625
0.0005662348,0.0024634458,0.0021490199,0.0006581601,0.0052839518,-0.013409723,0.0,0.0,0.0,0.13406494,-0.02487805,0.99066025,0.99097264,0.003365658,-0.13402271,-2.3283062e-10,-0.9996849,-0.02510468,0.010977507,0.038726225,0.0062742233,-0.0012771202,0.0004527261,0.0011868228,0.0,0.0,0.0,0.024749756
-0.001698697,0.0005982085,0.0006834767,0.0037224777,0.008081809,-0.012610335,0.0,0.0,0.0,0.13406494,-0.02487805,0.99066025,0.99097264,0.003365658,-0.13402271,-2.3283062e-10,-0.9996849,-0.02510468,0.028934002,-0.010354906,-0.011683464,-0.0011260646,0.00039868793,0.0011224713,0.0,0.0,0.0,0.024780273
0.00029977225,0.0012643647,-0.0010485295,0.001990473,0.005816877,-0.0106118675,0.0,0.0,0.0,0.13406494,-0.02487805,0.99066025,0.99097264,0.003365658,-0.13402271,-2.3283062e-10,-0.9996849,-0.02510468,-0.00219059,-0.012749121,-0.01647091,-0.0011313872,0.0003329489,0.0010345044,0.0,0.0,0.0,0.024658203
-0.0028977785,-0.00246611,0.0014828639,0.001990473,0.006349802,-0.015274961,0.0,0.0,0.0,0.13406494,-0.02487805,0.99066025,0.99097264,0.003365658,-0.13402271,-2.3283062e-10,-0.9996849,-0.02510468,0.016963005,0.017178416,0.040989876,-0.0010409153,0.00041717623,0.0012342812,0.0,0.0,0.0,0.024627686
0.00096592866,0.0021969832,-0.00038237358,0.0005249288,0.008348271,-0.015541423,0.0,0.0,0.0,0.13406494,-0.02487805,0.99066025,0.99097264,0.003365658,-0.13402271,-2.3283062e-10,-0.9996849,-0.02510468,0.051678896,0.033937827,-0.011683464,-0.00077731616,0.0005847795,0.0011696925,0.0,0.0,0.0,0.024627686
0.0005662348,0.003928989,-0.002380842,0.00292309,0.004484566,-0.016074346,0.0,0.0,0.0,0.13406494,-0.02487805,0.99066025,0.99097264,0.003365658,-0.13402271,-2.3283062e-10,-0.9996849,-0.02510468,-0.011767387,0.027952328,-0.03682232,-0.0008322665,0.00072161725,0.0009797325,0.0,0.0,0.0,0.02468872
0.0008326974,-0.0011337977,0.00041701412,0.0049215592,0.006349802,-0.017939584,0.0,0.0,0.0,0.13406494,-0.02487805,0.99066025,0.99097264,0.003365658,-0.13402271,-2.3283062e-10,-0.9996849,-0.02510468,0.0432992,-0.01514332,-0.017668724,-0.0006116092,0.0006422926,0.0008864902,0.0,0.0,0.0,0.024627686
0.0005662348,0.0012643647,0.0008167075,0.0030563213,0.004084872,-0.014875267,0.0,0.0,0.0,0.13406494,-0.02487805,0.99066025,0.99097264,0.003365658,-0.13402271,-2.3283062e-10,-0.9996849,-0.02510468,0.062452793,-0.01394622,0.02183628,-0.00029628718,0.0005693501,0.0009912392,0.0,0.0,0.0,0.024749756
0.00096592866,0.0005982085,0.0038810265,0.00092462264,0.00821504,-0.016340809,0.0,0.0,0.0,0.13406494,-0.02487805,0.99066025,0.99097264,0.003365658,-0.13402271,-2.3283062e-10,-0.9996849,-0.02510468,-0.0009934902,0.044711724,0.08887386,-0.00029977318,0.00079006195,0.0014306523,0.0,0.0,0.0,0.024627686
-0.0008993093,-0.00073410396,-0.0015814546,0.001590779,0.0036851782,-0.012610335,0.0,0.0,0.0,0.13406494,-0.02487805,0.99066025,0.99097264,0.003365658,-0.13402271,-2.3283062e-10,-0.9996849,-0.02510468,0.0421021,-0.0031722933,0.02782154,-8.776381e-05,0.00077025016,0.0015626068,0.0,0.0,0.0,0.024627686
-0.00049961545,-0.0019331852,1.7320272e-05,0.0006581601,0.005950108,-0.012610335,0.0,0.0,0.0,0.13406494,-0.02487805,0.99066025,0.99097264,0.003365658,-0.13402271,-2.3283062e-10,-0.9996849,-0.02510468,-0.028526783,-0.012749121,-0.021260262,-0.00022995891,0.0007026533,0.0014484925,0.0,0.0,0.0,0.024627686
0.0008326974,0.0009979021,-0.00038237358,-0.0016067717,0.0038184095,-0.011278022,0.0,0.0,0.0,0.13406494,-0.02487805,0.99066025,0.99097264,0.003365658,-0.13402271,-2.3283062e-10,-0.9996849,-0.02510468,-0.057257295,-0.0055665076,-0.028442383,-0.0005150956,0.00067130756,0.0012990382,0.0,0.0,0.0,0.02532959
-9.99216e-05,-0.0027325726,0.0021490199,0.001990473,0.0074156523,-0.015141729,0.0,0.0,0.0,0.13406494,-0.02487805,0.99066025,0.99097264,0.003365658,-0.13402271,-2.3283062e-10,-0.9996849,-0.02510468,-0.026132584,-0.019931719,0.0026826859,-0.00064318307,0.00056829245,0.0013059564,0.0,0.0,0.0,0.024841309
0.0017653145,-0.0017999539,-0.00038237358,0.0026566274,0.006749496,-0.014075879,0.0,0.0,0.0,0.13406494,-0.02487805,0.99066025,0.99097264,0.003365658,-0.13402271,-2.3283062e-10,-0.9996849,-0.02510468,-0.0033876896,-0.028311417,-0.015274048,-0.0006569056,0.00042389391,0.0012230565,0.0,0.0,0.0,0.02468872
0.002964396,-0.0004676415,-0.00038237358,0.00012523495,0.0028857905,-0.012210641,0.0,0.0,0.0,0.13406494,-0.02487805,0.99066025,0.99097264,0.003365658,-0.13402271,-2.3283062e-10,-0.9996849,-0.02510468,-0.07401669,0.00041900575,0.0050764084,-0.0010237044,0.0004238695,0.0012423232,0.0,0.0,0.0,0.024597168
-0.00049961545,-0.00020117895,0.00041701412,0.0059874095,0.0036851782,-0.016607272,0.0,0.0,0.0,0.13406494,-0.02487805,0.99066025,0.99097264,0.003365658,-0.13402271,-2.3283062e-10,-0.9996849,-0.02510468,0.010977507,0.013587117,-0.027245522,-0.0009636983,0.00048968574,0.001099884,0.0,0.0,0.0,0.02456665
0.00029977225,-0.0019331852,-0.00011591101,0.0026566274,0.0070159584,-0.01420911,0.0,0.0,0.0,0.13406494,-0.02487805,0.99066025,0.99097264,0.003365658,-0.13402271,-2.3283062e-10,-0.9996849,-0.02510468,0.015765905,0.007601604,-0.009288788,-0.0008800503,0.0005252453,0.0010479407,0.0,0.0,0.0,0.02456665
-0.0006328467,-0.00033441023,0.0005502454,0.0026566274,0.005017489,-0.014475573,0.0,0.0,0.0,0.13406494,-0.02487805,0.99066025,0.99097264,0.003365658,-0.13402271,-2.3283062e-10,-0.9996849,-0.02510468,-0.0393008,0.014784202,0.02183628,-0.001072154,0.0005965401,0.0011518823,0.0,0.0,0.0,0.024627686
0.0033640899,0.00019851467,0.00015055155,0.0046550967,0.0030190218,-0.014742035,0.0,0.0,0.0,0.13406494,-0.02487805,0.99066025,0.99097264,0.003365658,-0.13402271,-2.3283062e-10,-0.9996849,-0.02510468,0.015765905,-0.007960707,-0.028442383,-0.0009879638,0.0005537539,0.001003911,0.0,0.0,0.0,0.024749756
0.0025647022,-0.0020664164,-0.0017146859,0.0035892464,0.0064830333,-0.017939584,0.0,0.0,0.0,0.13406494,-0.02487805,0.99066025,0.99097264,0.003365658,-0.13402271,-2.3283062e-10,-0.9996849,-0.02510468,0.0037949085,0.036332026,0.0062732697,-0.00096404937,0.0007326453,0.0010302578,0.0,0.0,0.0,0.024658203
0.0016320832,0.0028631396,-0.0018479172,0.0013243165,0.006749496,-0.014475573,0.0,0.0,0.0,0.13406494,-0.02487805,0.99066025,0.99097264,0.003365658,-0.13402271,-2.3283062e-10,-0.9996849,-0.02510468,0.012174606,-0.029508516,0.012259483,-0.0008983561,0.00058143947,0.001086404,0.0,0.0,0.0,0.024658203
-0.00036638416,-0.0015334914,0.0012164013,0.0022569355,0.0064830333,-0.01420911,0.0,0.0,0.0,0.13406494,-0.02487805,0.99066025,0.99097264,0.003365658,-0.13402271,-2.3283062e-10,-0.9996849,-0.02510468,0.019357204,-0.010354906,-0.047595978,-0.0007970783,0.00052675774,0.00084299204,0.0,0.0,0.0,0.02456665
-0.0006328467,-0.0004676415,0.0006834767,-0.0002744589,0.0043513346,-0.013276491,0.0,0.0,0.0,0.13406494,-0.02487805,0.99066025,0.99097264,0.003365658,-0.13402271,-2.3283062e-10,-0.9996849,-0.02510468,0.0349195,0.008798704,0.06493187,-0.00061849545,0.0005681175,0.0011634364,0.0,0.0,0.0,0.02520752
0.0032308586,-0.00073410396,0.0014828639,0.0039889403,0.0030190218,-0.016207578,0.0,0.0,0.0,0.13406494,-0.02487805,0.99066025,0.99097264,0.003365658,-0.13402271,-2.3283062e-10,-0.9996849,-0.02510468,-0.020147204,-0.0067635924,-0.0056972504,-0.00071613904,0.00053145894,0.001129133,0.0,0.0,0.0,0.024993896
-0.0011657719,-0.00073410396,0.00028378284,0.0027898587,0.007682115,-0.012610335,0.0,0.0,0.0,0.13406494,-0.02487805,0.99066025,0.99097264,0.003365658,-0.13402271,-2.3283062e-10,-0.9996849,-0.02510468,-0.010570288,0.019572616,-0.004500389,-0.0007654098,0.0006266647,0.0011009854,0.0,0.0,0.0,0.02468872
0.002031777,-0.0023328788,0.0022822511,0.0026566274,0.0056836456,-0.011677716,0.0,0.0,0.0,0.13406494,-0.02487805,0.99066025,0.99097264,0.003365658,-0.13402271,-2.3283062e-10,-0.9996849,-0.02510468,0.0313282,-0.040282413,-0.0452013,-0.00060494174,0.00042211934,0.000869474,0.0,0.0,0.0,0.024627686
0.0010991581,-0.0020664164,-0.00051560486,0.004788328,0.005017489,-0.016207578,0.0,0.0,0.0,0.13406494,-0.02487805,0.99066025,0.99097264,0.003365658,-0.13402271,-2.3283062e-10,-0.9996849,-0.02510468,-0.023738503,0.0028132051,-0.026047707,-0.00072060956,0.00043407478,0.00073488813,0.0,0.0,0.0,0.024597168
0.002031777,-0.00020117895,-0.0019811485,0.0027898587,0.0070159584,-0.014875267,0.0,0.0,0.0,0.13406494,-0.02487805,0.99066025,0.99097264,0.003365658,-0.13402271,-2.3283062e-10,-0.9996849,-0.02510468,-0.020147085,-0.024720117,-0.004500389,-0.0008177419,0.00030830386,0.0007087118,0.0,0.0,0.0,0.024658203
0.0016320832,-0.0016667226,0.0013496326,0.0035892464,0.0043513346,-0.012210641,0.0,0.0,0.0,0.13406494,-0.02487805,0.99066025,0.99097264,0.003365658,-0.13402271,-2.3283062e-10,-0.9996849,-0.02510468,-0.028526783,-0.007960692,-0.04879284,-0.00095628714,0.0002669589,0.00046120404,0.0,0.0,0.0,0.024749756
0.0025647022,0.0028631396,0.002681945,0.004788328,0.0043513346,-0.016074346,0.0,0.0,0.0,0.13406494,-0.02487805,0.99066025,0.99097264,0.003365658,-0.13402271,-2.3283062e-10,-0.9996849,-0.02510468,-0.051271796,0.011192918,-0.05118656,-0.0012078647,0.0003215887,0.00020296522,0.0,0.0,0.0,0.024719238
0.0018985458,0.0007314398,0.0014828639,0.0023901667,0.0062165707,-0.013942648,0.0,0.0,0.0,0.13406494,-0.02487805,0.99066025,0.99097264,0.003365658,-0.13402271,-2.3283062e-10,-0.9996849,-0.02510468,-0.0033876896,-0.0031722933,0.0014848709,-0.0012187639,0.0003041193,0.00020937476,0.0,0.0,0.0,0.024627686
3.3309683e-05,-0.0023328788,0.0029484075,0.001990473,0.006882727,-0.016873734,0.0,0.0,0.0,0.13406494,-0.02487805,0.99066025,0.99097264,0.003365658,-0.13402271,-2.3283062e-10,-0.9996849,-0.02510468,-0.010570288,-0.04626794,0.051763535,-0.0012655215,7.1259026e-05,0.00046714552,0.0,0.0,0.0,0.02456665
0.0034973212,0.0020637522,-0.0019811485,0.0033227839,0.0043513346,-0.015941115,0.0,0.0,0.0,0.13406494,-0.02487805,0.99066025,0.99097264,0.003365658,-0.13402271,-2.3283062e-10,-0.9996849,-0.02510468,0.0313282,0.033937827,-0.024851799,-0.0011025529,0.00024059185,0.0003405508,0.0,0.0,0.0,0.024627686
0.00016654097,-0.0025993413,1.7320272e-05,0.0018572416,0.0052839518,-0.012477104,0.0,0.0,0.0,0.13406494,-0.02487805,0.99066025,0.99097264,0.003365658,-0.13402271,-2.3283062e-10,-0.9996849,-0.02510468,0.0073862076,-0.015143305,-0.049990654,-0.0010601091,0.00016367236,8.889477e-05,0.0,0.0,0.0,0.024597168
-0.0027645472,6.52835e-05,0.00041701412,0.004788328,0.007948577,-0.015807886,0.0,0.0,0.0,0.13406494,-0.02487805,0.99066025,0.99097264,0.003365658,-0.13402271,-2.3283062e-10,-0.9996849,-0.02510468,-0.03331518,0.029149428,0.0062742233,-0.0012213845,0.00030860113,0.000119821416,0.0,0.0,0.0,0.025390625
-0.0014322344,-0.0006008727,-0.0002491423,0.004788328,0.005417183,-0.014475573,0.0,0.0,0.0,0.13406494,-0.02487805,0.99066025,0.99097264,0.003365658,-0.13402271,-2.3283062e-10,-0.9996849,-0.02510468,0.050481796,0.036332026,-0.0452013,-0.0009628686,0.0004887183,-0.0001067842,0.0,0.0,0.0,0.02468872
-0.000766078,-0.0021996475,-0.0022476108,0.0031895526,0.0036851782,-0.015274961,0.0,0.0,0.0,0.13406494,-0.02487805,0.99066025,0.99097264,0.003365658,-0.13402271,-2.3283062e-10,-0.9996849,-0.02510468,-0.020147085,-0.035494015,-0.014077187,-0.0010587897,0.00030880462,-0.00017663621,0.0,0.0,0.0,0.02456665
-0.001698697,-0.00033441023,-0.00091529824,0.0017240103,0.0066162646,-0.016207578,0.0,0.0,0.0,0.13406494,-0.02487805,0.99066025,0.99097264,0.003365658,-0.13402271,-2.3283062e-10,-0.9996849,-0.02510468,-0.0045847893,-0.013946205,-0.05956745,-0.0010764196,0.00023752957,-0.00047359028,0.0,0.0,0.0,0.024597168
0.00096592866,-0.0010005664,-0.002913767,0.0005249288,0.0052839518,-0.011544485,0.0,0.0,0.0,0.13406494,-0.02487805,0.99066025,0.99097264,0.003365658,-0.13402271,-2.3283062e-10,-0.9996849,-0.02510468,0.012174606,0.0052074045,-0.017668724,-0.0010101645,0.00026237895,-0.00055956596,0.0,0.0,0.0,0.02456665
-0.00036638416,-0.0020664164,-0.002380842,0.002523398,0.0043513346,-0.019005435,0.0,0.0,0.0,0.13406494,-0.02487805,0.99066025,0.99097264,0.003365658,-0.13402271,-2.3283062e-10,-0.9996849,-0.02510468,-0.00219059,0.029149428,-0.03921604,-0.0010160666,0.00040681422,-0.00075284834,0.0,0.0,0.0,0.02468872
0.0034973212,0.00019851467,-0.00078206696,-0.00014122762,0.0074156523,-0.012743566,0.0,0.0,0.0,0.13406494,-0.02487805,0.99066025,0.99097264,0.003365658,-0.13402271,-2.3283062e-10,-0.9996849,-0.02510468,0.009780407,0.0016161054,-0.028442383,-0.0009620842,0.00041286068,-0.000891296,0.0,0.0,0.0,0.02468872
0.004296709,6.52835e-05,0.0018825573,-0.0016067717,0.003951641,-0.015274961,0.0,0.0,0.0,0.13406494,-0.02487805,0.99066025,0.99097264,0.003365658,-0.13402271,-2.3283062e-10,-0.9996849,-0.02510468,-0.029724002,-0.024720117,-0.008091927,-0.0011058939,0.00028719578,-0.00092729914,0.0,0.0,0.0,0.024627686
0.00016654097,6.52835e-05,0.00041701412,0.0050547905,0.008081809,-0.014475573,0.0,0.0,0.0,0.13406494,-0.02487805,0.99066025,0.99097264,0.003365658,-0.13402271,-2.3283062e-10,-0.9996849,-0.02510468,0.024145603,-0.021128818,0.01585102,-0.0009796363,0.00018011572,-0.0008434076,0.0,0.0,0.0,0.024597168
0.00096592866,0.0015308273,0.0006834767,0.0030563213,0.005950108,-0.014342342,0.0,0.0,0.0,0.13406494,-0.02487805,0.99066025,0.99097264,0.003365658,-0.13402271,-2.3283062e-10,-0.9996849,-0.02510468,-0.04049778,-0.010354921,0.009865761,-0.001177227,0.00012744054,-0.0007898618,0.0,0.0,0.0,0.02456665
0.002031777,0.00086467084,0.00028378284,0.003855709,0.007815346,-0.014608804,0.0,0.0,0.0,0.13406494,-0.02487805,0.99066025,0.99097264,0.003365658,-0.13402271,-2.3283062e-10,-0.9996849,-0.02510468,0.045693398,-0.010354906,-0.010485649,-0.00094287394,7.50288e-05,-0.00083834067,0.0,0.0,0.0,0.024597168
-0.0024980847,0.00033174595,0.0016160952,0.0023901667,0.0062165707,-0.0106118675,0.0,0.0,0.0,0.13406494,-0.02487805,0.99066025,0.99097264,0.003365658,-0.13402271,-2.3283062e-10,-0.9996849,-0.02510468,-0.017752886,-0.031902716,0.026623726,-0.001026924,-8.485991e-05,-0.00070103037,0.0,0.0,0.0,0.025115967
0.0013656206,0.0017972896,0.0010831701,0.0031895526,0.007282421,-0.017273428,0.0,0.0,0.0,0.13406494,-0.02487805,0.99066025,0.99097264,0.003365658,-0.13402271,-2.3283062e-10,-0.9996849,-0.02510468,-0.016555905,0.018375501,0.0338068,-0.001104569,7.441893e-06,-0.0005284912,0.0,0.0,0.0,0.026184082
-0.0010325406,-6.794778e-05,0.0021490199,0.003855709,0.0051507205,-0.013676185,0.0,0.0,0.0,0.13406494,-0.02487805,0.99066025,0.99097264,0.003365658,-0.13402271,-2.3283062e-10,-0.9996849,-0.02510468,-0.021344304,0.0016161054,-0.023653984,-0.0012057676,1.548521e-05,-0.0006441187,0.0,0.0,0.0,0.025177002
-0.0011657719,-0.0015334914,-0.0011817608,-0.00054092146,0.0074156523,-0.013542954,0.0,0.0,0.0,0.13406494,-0.02487805,0.99066025,0.99097264,0.003365658,-0.13402271,-2.3283062e-10,-0.9996849,-0.02510468,-0.011767387,-0.034296915,0.024230003,-0.0012585757,-0.00015607679,-0.00051974814,0.0,0.0,0.0,0.025238037
0.00029977225,0.00033174595,0.0005502454,0.0026566274,0.006749496,-0.014342342,0.0,0.0,0.0,0.13406494,-0.02487805,0.99066025,0.99097264,0.003365658,-0.13402271,-2.3283062e-10,-0.9996849,-0.02510468,0.010977507,0.0195726,0.03260994,-0.0011973954,-5.7433397e-05,-0.0003540997,0.0,0.0,0.0,0.024841309
-0.0034307018,6.52835e-05,0.0006834767,-0.0002744589,0.004484566,-0.015674654,0.0,0.0,0.0,0.13406494,-0.02487805,0.99066025,0.99097264,0.003365658,-0.13402271,-2.3283062e-10,-0.9996849,-0.02510468,0.0014007092,-0.012749091,0.040989876,-0.0011844048,-0.00012089168,-0.00014737982,0.0,0.0,0.0,0.024658203
-0.00049961545,-0.0041981163,-0.0010485295,0.004388634,0.0038184095,-0.016207578,0.0,0.0,0.0,0.13406494,-0.02487805,0.99066025,0.99097264,0.003365658,-0.13402271,-2.3283062e-10,-0.9996849,-0.02510468,-0.014161587,-0.023523018,-0.046399117,-0.0012492908,-0.0002379023,-0.0003786385,0.0,0.0,0.0,0.024627686
-0.000766078,-0.00020117895,0.0008167075,0.004788328,0.0056836456,-0.014475573,0.0,0.0,0.0,0.13406494,-0.02487805,0.99066025,0.99097264,0.003365658,-0.13402271,-2.3283062e-10,-0.9996849,-0.02510468,-0.0069789886,0.035134926,-0.012879372,-0.0012779392,-6.1038154e-05,-0.00044114215,0.0,0.0,0.0,0.02468872
0.0022982396,-6.794778e-05,-0.00091529824,0.0033227839,0.002619328,-0.015541423,0.0,0.0,0.0,0.13406494,-0.02487805,0.99066025,0.99097264,0.003365658,-0.13402271,-2.3283062e-10,-0.9996849,-0.02510468,0.012174606,-0.023523018,-0.004500389,-0.0012106765,-0.00017834804,-0.00046143838,0.0,0.0,0.0,0.024719238
0.0006994661,0.0015308273,-0.00038237358,0.003855709,0.007815346,-0.014608804,0.0,0.0,0.0,0.13406494,-0.02487805,0.99066025,0.99097264,0.003365658,-0.13402271,-2.3283062e-10,-0.9996849,-0.02510468,0.0325253,0.059076935,-0.0033025742,-0.0010419966,0.00011792837,-0.00047564408,0.0,0.0,0.0,0.024627686
0.0006994661,-0.00073410396,-0.002913767,0.0026566274,0.009680584,-0.014075879,0.0,0.0,0.0,0.13406494,-0.02487805,0.99066025,0.99097264,0.003365658,-0.13402271,-2.3283062e-10,-0.9996849,-0.02510468,-0.022541285,0.014784217,0.0338068,-0.0011494932,0.00019125981,-0.00030423186,0.0,0.0,0.0,0.024627686
0.00029977225,0.0007314398,-0.002913767,0.0014575478,0.008081809,-0.016607272,0.0,0.0,0.0,0.13406494,-0.02487805,0.99066025,0.99097264,0.003365658,-0.13402271,-2.3283062e-10,-0.9996849,-0.02510468,0.018160105,-0.004369393,-0.023653984,-0.0010529452,0.00016845655,-0.00042098062,0.0,0.0,0.0,0.024627686
0.0017653145,0.0011311334,-0.0018479172,0.0021237042,0.005816877,-0.012343872,0.0,0.0,0.0,0.13406494,-0.02487805,0.99066025,0.99097264,0.003365658,-0.13402271,-2.3283062e-10,-0.9996849,-0.02510468,0.045693398,-0.007960707,-0.004500389,-0.0008192134,0.00012781074,-0.00044137766,0.0,0.0,0.0,0.024597168
0.0016320832,0.0027299083,-0.0014482234,0.0046550967,0.006882727,-0.014742035,0.0,0.0,0.0,0.13406494,-0.02487805,0.99066025,0.99097264,0.003365658,-0.13402271,-2.3283062e-10,-0.9996849,-0.02510468,-0.04169488,0.038726225,-0.055975914,-0.0010235917,0.0003208028,-0.00071905035,0.0,0.0,0.0,0.025390625
0.0022982396,0.0007314398,0.0016160952,0.0031895526,0.0071491897,-0.014875267,0.0,0.0,0.0,0.13406494,-0.02487805,0.99066025,0.99097264,0.003365658,-0.13402271,-2.3283062e-10,-0.9996849,-0.02510468,-0.030920982,0.037529126,-0.029639244,-0.0011730787,0.00050684443,-0.0008636513,0.0,0.0,0.0,0.024749756
0.0034973212,-0.002865804,-0.00091529824,-0.000807384,0.0060833395,-0.015141729,0.0,0.0,0.0,0.13406494,-0.02487805,0.99066025,0.99097264,0.003365658,-0.13402271,-2.3283062e-10,-0.9996849,-0.02510468,0.0073862076,-0.0067636073,0.014653206,-0.0011302823,0.00047049214,-0.000786067,0.0,0.0,0.0,0.024627686
0.00043300353,0.00046497723,0.0030816388,0.0050547905,0.0062165707,-0.017806353,0.0,0.0,0.0,0.13406494,-0.02487805,0.99066025,0.99097264,0.003365658,-0.13402271,-2.3283062e-10,-0.9996849,-0.02510468,-0.020147085,0.027952328,-0.058369637,-0.0012253664,0.0006079013,-0.0010739848,0.0,0.0,0.0,0.02456665
-0.000766078,0.00046497723,-0.0018479172,0.0041221716,0.009014428,-0.013409723,0.0,0.0,0.0,0.13406494,-0.02487805,0.99066025,0.99097264,0.003365658,-0.13402271,-2.3283062e-10,-0.9996849,-0.02510468,0.014568806,-0.0067635924,0.03141308,-0.0011463956,0.00057104387,-0.0009115495,0.0,0.0,0.0,0.02456665
-0.0010325406,-0.0004676415,-0.0010485295,-7.996336e-06,0.007282421,-0.014075879,0.0,0.0,0.0,0.13406494,-0.02487805,0.99066025,0.99097264,0.003365658,-0.13402271,-2.3283062e-10,-0.9996849,-0.02510468,0.016963005,-0.029508516,-0.058369637,-0.0010558486,0.0004206461,-0.00119884,0.0,0.0,0.0,0.024658203
-0.000766078,0.00019851467,-0.00038237358,0.0049215592,0.0036851782,-0.015008498,0.0,0.0,0.0,0.13406494,-0.02487805,0.99066025,0.99097264,0.003365658,-0.13402271,-2.3283062e-10,-0.9996849,-0.02510468,-0.011767387,-0.012749106,-0.002105713,-0.0011094062,0.00035479735,-0.0012033744,0.0,0.0,0.0,0.024719238
-0.0018319283,-6.794778e-05,-0.0002491423,-0.0002744589,0.0042181034,-0.018206047,0.0,0.0,0.0,0.13406494,-0.02487805,0.99066025,0.99097264,0.003365658,-0.13402271,-2.3283062e-10,-0.9996849,-0.02510468,-0.011767387,-0.007960707,-0.028442383,-0.001162696,0.00031321982,-0.0013395695,0.0,0.0,0.0,0.02468872
0.00096592866,-0.00246611,0.0024154824,0.0023901667,0.007948577,-0.01420911,0.0,0.0,0.0,0.13406494,-0.02487805,0.99066025,0.99097264,0.003365658,-0.13402271,-2.3283062e-10,-0.9996849,-0.02510468,-0.0033876896,-0.01514332,0.0038795471,-0.001173821,0.00023593711,-0.0013134739,0.0,0.0,0.0,0.024658203
0.0008326974,-0.00020117895,-0.0038463857,0.004388634,0.006882727,-0.013809416,0.0,0.0,0.0,0.13406494,-0.02487805,0.99066025,0.99097264,0.003365658,-0.13402271,-2.3283062e-10,-0.9996849,-0.02510468,-0.016555786,0.006404504,0.011061668,-0.001250731,0.00026677994,-0.0012515982,0.0,0.0,0.0,0.02456665
0.0014988519,0.0011311334,-0.00091529824,0.0021237042,0.0074156523,-0.01753989,0.0,0.0,0.0,0.13406494,-0.02487805,0.99066025,0.99097264,0.003365658,-0.13402271,-2.3283062e-10,-0.9996849,-0.02510468,-0.08479059,-0.0031722933,-0.0033025742,-0.0016684303,0.00024958458,-0.001261853,0.0,0.0,0.0,0.02456665
-0.0019651596,0.0015308273,0.0016160952,0.004388634,0.003551947,-0.011278022,0.0,0.0,0.0,0.13406494,-0.02487805,0.99066025,0.99097264,0.003365658,-0.13402271,-2.3283062e-10,-0.9996849,-0.02510468,-0.0069789886,-0.0019752085,-0.07034111,-0.0016949831,0.00023846063,-0.0016072493,0.0,0.0,0.0,0.025146484
0.0037637837,0.0011311334,-0.0019811485,0.0011910852,0.0060833395,-0.014608804,0.0,0.0,0.0,0.13406494,-0.02487805,0.99066025,0.99097264,0.003365658,-0.13402271,-2.3283062e-10,-0.9996849,-0.02510468,-0.0357095,0.0028132051,0.0026826859,-0.0018650556,0.00025133436,-0.0015857996,0.0,0.0,0.0,0.024902344
-9.99216e-05,-0.004464579,0.00015055155,-0.00014122762,0.006349802,-0.015141729,0.0,0.0,0.0,0.13406494,-0.02487805,0.99066025,0.99097264,0.003365658,-0.13402271,-2.3283062e-10,-0.9996849,-0.02510468,0.044496298,0.007601604,0.02183628,-0.001633249,0.00028808572,-0.0014686892,0.0,0.0,0.0,0.024658203
0.00043300353,0.0011311334,0.0020157886,0.0049215592,0.005816877,-0.015807886,0.0,0.0,0.0,0.13406494,-0.02487805,0.99066025,0.99097264,0.003365658,-0.13402271,-2.3283062e-10,-0.9996849,-0.02510468,-0.010570288,0.009995803,0.04577732,-0.0016779342,0.0003366243,-0.0012324591,0.0,0.0,0.0,0.024597168
0.0010991581,0.0023302145,0.003614564,0.0027898587,0.005417183,-0.017806353,0.0,0.0,0.0,0.13406494,-0.02487805,0.99066025,0.99097264,0.003365658,-0.13402271,-2.3283062e-10,-0.9996849,-0.02510468,0.0373137,0.026755229,0.00028896332,-0.001482976,0.0004687173,-0.0012248519,0.0,0.0,0.0,0.024658203
-0.0023648534,0.0011311334,-0.0015814546,0.001990473,0.0070159584,-0.015408192,0.0,0.0,0.0,0.13406494,-0.02487805,0.99066025,0.99097264,0.003365658,-0.13402271,-2.3283062e-10,-0.9996849,-0.02510468,-0.011767387,-0.037888214,0.03260994,-0.0015343981,0.00027693267,-0.001055678,0.0,0.0,0.0,0.024627686
0.002964396,-0.0021996475,0.0008167075,0.0026566274,0.005017489,-0.01420911,0.0,0.0,0.0,0.13406494,-0.02487805,0.99066025,0.99097264,0.003365658,-0.13402271,-2.3283062e-10,-0.9996849,-0.02510468,0.021751404,0.008798718,-0.03921604,-0.001417969,0.00031954158,-0.0012464798,0.0,0.0,0.0,0.02468872
-0.0015654657,-0.0023328788,0.0014828639,0.0046550967,0.0074156523,-0.014742035,0.0,0.0,0.0,0.13406494,-0.02487805,0.99066025,0.99097264,0.003365658,-0.13402271,-2.3283062e-10,-0.9996849,-0.02510468,0.10075998,0.013587102,0.029018402,-0.0009070793,0.00038587936,-0.0010951554,0.0024814853,0.0,0.0,0.024627686
0.0005662348,0.0016640583,0.0006834767,0.0034560151,0.008348271,-0.012610335,0.0,0.0,0.0,0.13406494,-0.02487805,0.99066025,0.99097264,0.003365658,-0.13402271,-2.3283062e-10,-0.9996849,-0.02510468,-0.005781889,0.018375501,0.0014848709,-0.00093145337,0.00047582746,-0.0010822552,0.0024814853,0.0,0.0,0.024627686
-0.00036638416,-0.0015334914,-0.00011591101,0.0010578539,0.007815346,-0.01740666,0.0,0.0,0.0,0.13406494,-0.02487805,0.99066025,0.99097264,0.003365658,-0.13402271,-2.3283062e-10,-0.9996849,-0.02510468,-0.012964606,-0.0055665076,-0.002105713,-0.0009916192,0.0004456158,-0.0010873725,0.0024814853,0.0,0.0,0.024627686
-0.0006328467,-0.0008673352,0.0014828639,0.0017240103,0.005017489,-0.018072816,0.0,0.0,0.0,0.13406494,-0.02487805,0.99066025,0.99097264,0.003365658,-0.13402271,-2.3283062e-10,-0.9996849,-0.02510468,-0.03451228,-0.025917217,-0.010485649,-0.0011592224,0.00031380163,-0.0011343639,0.0024814853,0.0,0.0,0.025054932
-0.0024980847,0.0009979021,-0.0002491423,0.007985879,0.007815346,-0.014075879,0.0,0.0,0.0,0.13406494,-0.02487805,0.99066025,0.99097264,0.003365658,-0.13402271,-2.3283062e-10,-0.9996849,-0.02510468,-0.03570938,0.018375516,0.0014848709,-0.0013319732,0.00040411018,-0.0011212677,0.0024814853,0.0,0.0,0.024658203
0.0008326974,0.0024634458,-0.0021143795,0.001590779,0.0055504143,-0.016207578,0.0,0.0,0.0,0.13406494,-0.02487805,0.99066025,0.99097264,0.003365658,-0.13402271,-2.3283062e-10,-0.9996849,-0.02510468,-0.06922829,-0.0055664927,-0.015274048,-0.0016714549,0.00037425716,-0.0011920315,0.0024814853,0.0,0.0,0.025390625
0.0008326974,0.002996371,-0.00011591101,0.00079139136,0.007282421,-0.015541423,0.0,0.0,0.0,0.13406494,-0.02487805,0.99066025,0.99097264,0.003365658,-0.13402271,-2.3283062e-10,-0.9996849,-0.02510468,0.020554304,-0.037888214,-0.012879372,-0.0015603261,0.0001829448,-0.0012504683,0.0024814853,0.0,0.0,0.024627686
-0.0012990031,-0.0023328788,0.0012164013,0.004388634,0.0042181034,-0.0119441785,0.0,0.0,0.0,0.13406494,-0.02487805,0.99066025,0.99097264,0.003365658,-0.13402271,-2.3283062e-10,-0.9996849,-0.02510468,-0.027329683,-0.007960692,-0.02245617,-0.0016891729,0.00014222662,-0.0013564968,0.0024814853,0.0,0.0,0.02456665
-0.0014322344,0.00019851467,-0.0015814546,0.004388634,0.0084815025,-0.014742035,0.0,0.0,0.0,0.13406494,-0.02487805,0.99066025,0.99097264,0.003365658,-0.13402271,-2.3283062e-10,-0.9996849,-0.02510468,0.0037949085,0.025558129,-0.046399117,-0.0016617526,0.00026930613,-0.00158171,0.0024814853,0.0,0.0,0.02456665
0.002431471,0.0023302145,0.0009499388,0.0041221716,0.0060833395,-0.013542954,0.0,0.0,0.0,0.13406494,-0.02487805,0.99066025,0.99097264,0.003365658,-0.13402271,-2.3283062e-10,-0.9996849,-0.02510468,0.0025978088,-0.0019751936,0.050566673,-0.0016404547,0.00025808363,-0.001320968,0.0024814853,0.0,0.0,0.024627686
-0.0014322344,0.002996371,-0.0014482234,0.005321253,0.0055504143,-0.013542954,0.0,0.0,0.0,0.13406494,-0.02487805,0.99066025,0.99097264,0.003365658,-0.13402271,-2.3283062e-10,-0.9996849,-0.02510468,0.009780407,0.006404504,0.015850067,-0.0015833505,0.00028881573,-0.0012351129,0.0024814853,0.0,0.0,0.024719238
0.0006994661,-6.794778e-05,0.00028378284,0.007985879,0.0084815025,-0.01314326,0.0,0.0,0.0,0.13406494,-0.02487805,0.99066025,0.99097264,0.003365658,-0.13402271,-2.3283062e-10,-0.9996849,-0.02510468,0.016963005,-0.01753752,-0.017668724,-0.0014906188,0.00019968406,-0.0013172809,0.0024814853,0.0,0.0,0.024627686
-0.004363321,-0.0011337977,0.0005502454,0.0054544844,0.005950108,-0.01420911,0.0,0.0,0.0,0.13406494,-0.02487805,0.99066025,0.99097264,0.003365658,-0.13402271,-2.3283062e-10,-0.9996849,-0.02510468,-0.04289198,0.041120425,0.0062742233,-0.0016976255,0.00040428777,-0.0012793234,0.0024814853,0.0,0.0,0.02456665
3.3309683e-05,0.00033174595,0.0009499388,0.001990473,0.0075488836,-0.014075879,0.0,0.0,0.0,0.13406494,-0.02487805,0.99066025,0.99097264,0.003365658,-0.13402271,-2.3283062e-10,-0.9996849,-0.02510468,0.030131102,0.024361014,-0.07512951,-0.0015384819,0.0005240714,-0.0016485744,0.0024814853,0.0,0.0,0.02456665
0.0016320832,0.0005982085,-0.0014482234,0.0037224777,0.0024860967,-0.014608804,0.0,0.0,0.0,0.13406494,-0.02487805,0.99066025,0.99097264,0.003365658,-0.13402271,-2.3283062e-10,-0.9996849,-0.02510468,-0.029723883,-0.010354891,0.0050764084,-0.001679409,0.0004696766,-0.0016149494,0.0024814853,0.0,0.0,0.024597168
-0.00023315288,0.0007314398,0.00041701412,0.0018572416,0.0084815025,-0.015541423,0.0,0.0,0.0,0.13406494,-0.02487805,0.99066025,0.99097264,0.003365658,-0.13402271,-2.3283062e-10,-0.9996849,-0.02510468,0.0432992,0.05189435,0.03739834,-0.001454516,0.00072679995,-0.0014198831,0.0024814853,0.0,0.0,0.024627686
0.0016320832,-0.0014002601,0.0044139517,-0.00054092146,0.004884258,-0.01647404,0.0,0.0,0.0,0.13406494,-0.02487805,0.99066025,0.99097264,0.003365658,-0.13402271,-2.3283062e-10,-0.9996849,-0.02510468,0.027736902,-0.019931719,-0.0021066666,-0.0013085589,0.0006235073,-0.0014233171,0.0024814853,0.0,0.0,0.024780273
0.0040302463,-0.0043313475,-0.0019811485,0.004255403,0.009947047,-0.014342342,0.0,0.0,0.0,0.13406494,-0.02487805,0.99066025,0.99097264,0.003365658,-0.13402271,-2.3283062e-10,-0.9996849,-0.02510468,-0.0009934902,0.00041900575,0.11640644,-0.0013069835,0.0006224848,-0.00083416834,0.0024814853,0.0,0.0029520798,0.025360107
0.0056290217,0.0035292956,-0.00038237358,0.0033227839,0.002619328,-0.015674654,0.0,0.0,0.0,0.13406494,-0.02487805,0.99066025,0.99097264,0.003365658,-0.13402271,-2.3283062e-10,-0.9996849,-0.02510468,-0.011767387,0.020769715,0.024230003,-0.0013592856,0.00072322093,-0.00070884754,0.0024814853,0.0,0.0029520798,0.024658203
-0.00036638416,-0.0016667226,1.7320272e-05,0.0018572416,0.010613203,-0.017673122,0.0,0.0,0.0,0.13406494,-0.02487805,0.99066025,0.99097264,0.003365658,-0.13402271,-2.3283062e-10,-0.9996849,-0.02510468,0.006189108,-0.0019751936,-0.0068941116,-0.0013215436,0.00070972886,-0.0007397739,0.0024814853,0.0,0.0029520798,0.02456665
-0.00036638416,0.0031296022,0.0006834767,0.0033227839,0.0052839518,-0.013542954,0.0,0.0,0.0,0.13406494,-0.02487805,0.99066025,0.99097264,0.003365658,-0.13402271,-2.3283062e-10,-0.9996849,-0.02510468,-0.06324279,-0.039085314,0.014653206,-0.0016311498,0.00051075366,-0.000662809,0.0024814853,0.0,0.0029520798,0.024627686
0.002431471,0.0009979021,-0.0002491423,0.003855709,0.0047510285,-0.012743566,0.0,0.0,0.0,0.13406494,-0.02487805,0.99066025,0.99097264,0.003365658,-0.13402271,-2.3283062e-10,-0.9996849,-0.02510468,-0.0033876896,-0.027114317,0.0026826859,-0.0016399325,0.00037262833,-0.0006460815,0.0024814853,0.0,0.0029520798,0.02468872
0.0018985458,0.0007314398,0.00015055155,0.0027898587,0.0062165707,-0.01647404,0.0,0.0,0.0,0.13406494,-0.02487805,0.99066025,0.99097264,0.003365658,-0.13402271,-2.3283062e-10,-0.9996849,-0.02510468,-0.010570288,0.026755229,-0.046399117,-0.0016845843,0.0005045413,-0.0008748467,0.0024814853,0.0,0.0029520798,0.02468872
-0.00036638416,0.0032628335,-0.00064883614,0.0010578539,0.007815346,-0.013809416,0.0,0.0,0.0,0.13406494,-0.02487805,0.99066025,0.99097264,0.003365658,-0.13402271,-2.3283062e-10,-0.9996849,-0.02510468,0.016963005,-0.031902716,0.018244743,-0.0015913465,0.00034250505,-0.0007792488,0.0024814853,0.0,0.0029520798,0.02456665
0.002431471,0.00033174595,-0.0010485295,-0.0013403092,0.004617797,-0.018072816,0.0,0.0,0.0,0.13406494,-0.02487805,0.99066025,0.99097264,0.003365658,-0.13402271,-2.3283062e-10,-0.9996849,-0.02510468,0.0361166,0.06386535,-0.032032967,-0.0014028067,0.0006601192,-0.00093551737,0.0024814853,0.0,0.0029520798,0.024597168
0.0021650083,0.00019851467,0.0029484075,0.001590779,0.0052839518,-0.016074346,0.0,0.0,0.0,0.13406494,-0.02487805,0.99066025,0.99097264,0.003365658,-0.13402271,-2.3283062e-10,-0.9996849,-0.02510468,-0.012964487,-0.025917217,0.057748795,-0.0014606151,0.00052723254,-0.0006420958,0.0024814853,0.0,0.0029520798,0.024597168
0.002431471,0.0017972896,-0.0002491423,0.0039889403,0.0034187157,-0.014475573,0.0,0.0,0.0,0.13406494,-0.02487805,0.99066025,0.99097264,0.003365658,-0.13402271,-2.3283062e-10,-0.9996849,-0.02510468,0.056467295,0.0052074045,0.008667946,-0.0011709755,0.0005506334,-0.00059554557,0.0024814853,0.0,0.0029520798,0.02468872
-0.0027645472,-0.0014002601,0.00028378284,0.002523398,0.007682115,-0.017006965,0.0,0.0,0.0,0.13406494,-0.02487805,0.99066025,0.99097264,0.003365658,-0.13402271,-2.3283062e-10,-0.9996849,-0.02510468,0.0361166,0.011192918,0.024230003,-0.0009845376,0.0006038448,-0.00047141782,0.0024814853,0.0,0.0029520798,0.024749756
0.002031777,0.0023302145,0.0034813327,0.0005249288,0.0062165707,-0.014608804,0.0,0.0,0.0,0.13406494,-0.02487805,0.99066025,0.99097264,0.003365658,-0.13402271,-2.3283062e-10,-0.9996849,-0.02510468,0.025342703,-0.022325918,-0.004500389,-0.0008529014,0.000489196,-0.00049156265,0.0024814853,0.0,0.0029520798,0.024658203
0.0036305524,-0.001267029,-0.0030469983,0.0045218654,0.0051507205,-0.0106118675,0.0,0.0,0.0,0.13406494,-0.02487805,0.99066025,0.99097264,0.003365658,-0.13402271,-2.3283062e-10,-0.9996849,-0.02510468,-0.0033876896,-0.0031722933,0.030215263,-0.0008655753,0.00047088854,-0.00033802853,0.0024814853,0.0,0.0029520798,0.025360107
-0.0010325406,-0.0016667226,0.0014828639,0.0034560151,0.0070159584,-0.014475573,0.0,0.0,0.0,0.13406494,-0.02487805,0.99066025,0.99097264,0.003365658,-0.13402271,-2.3283062e-10,-0.9996849,-0.02510468,-0.024935603,-0.05105634,0.0062732697,-0.0009859254,0.00021325241,-0.00030497205,0.0024814853,0.0,0.0029520798,0.024658203
0.002431471,6.52835e-05,0.0014828639,0.0014575478,0.0075488836,-0.013409723,0.0,0.0,0.0,0.13406494,-0.02487805,0.99066025,0.99097264,0.003365658,-0.13402271,-2.3283062e-10,-0.9996849,-0.02510468,-0.00219059,0.011192903,0.0074710846,-0.0009919488,0.00026815064,-0.00026609178,0.0024814853,0.0,0.0029520798,0.02468872
0.0008326974,-0.0021996475,0.0009499388,0.0021237042,0.009813815,-0.014475573,0.0,0.0,0.0,0.13406494,-0.02487805,0.99066025,0.99097264,0.003365658,-0.13402271,-2.3283062e-10,-0.9996849,-0.02510468,-0.0345124,-0.013946205,0.035004616,-0.001159551,0.00019707886,-8.9738256e-05,0.0024814853,0.0,0.0029520798,0.02468872
-0.00036638416,-0.0053971973,0.0025487137,-0.0009406153,0.0071491897,-0.015941115,0.0,0.0,0.0,0.13406494,-0.02487805,0.99066025,0.99097264,0.003365658,-0.13402271,-2.3283062e-10,-0.9996849,-0.02510468,-0.017752886,-0.05345054,0.0026826859,-0.0012425177,-7.1159244e-05,-7.587613e-05,0.0024814853,0.0,0.0029520798,0.024627686
0.00096592866,-0.0017999539,0.0008167075,0.003855709,0.0047510285,-0.014608804,0.0,0.0,0.0,0.13406494,-0.02487805,0.99066025,0.99097264,0.003365658,-0.13402271,-2.3283062e-10,-0.9996849,-0.02510468,-0.0321182,-0.004369408,0.064930916,-0.0013968961,-9.265049e-05,0.00024915783,0.0024814853,0.0,0.0029520798,0.024597168
-0.00036638416,-0.0014002601,0.0029484075,0.0041221716,0.0047510285,-0.017006965,0.0,0.0,0.0,0.13406494,-0.02487805,0.99066025,0.99097264,0.003365658,-0.13402271,-2.3283062e-10,-0.9996849,-0.02510468,0.008583307,0.035134926,-0.023653984,-0.0013469951,8.34874e-05,0.00012964213,0.0024814853,0.0,0.0029520798,0.024658203
-0.0015654657,0.0016640583,-0.0021143795,0.0050547905,0.0038184095,-0.01314326,0.0,0.0,0.0,0.13406494,-0.02487805,0.99066025,0.99097264,0.003365658,-0.13402271,-2.3283062e-10,-0.9996849,-0.02510468,-0.00219059,0.021966815,0.046975136,-0.0013512131,0.00019290403,0.0003638696,0.0024814853,0.0,0.0029520798,0.024627686
0.0033640899,-6.794778e-05,-0.00051560486,0.00292309,0.0071491897,-0.011677716,0.0,0.0,0.0,0.13406494,-0.02487805,0.99066025,0.99097264,0.003365658,-0.13402271,-2.3283062e-10,-0.9996849,-0.02510468,-0.008176088,-0.073801264,0.044581413,-0.0013853374,-0.00017706679,0.0005849573,0.0024814853,0.0,0.0029520798,0.024627686
-0.0012990031,-0.0023328788,-0.0010485295,0.00092462264,0.0055504143,-0.015541423,0.0,0.0,0.0,0.13406494,-0.02487805,0.99066025,0.99097264,0.003365658,-0.13402271,-2.3283062e-10,-0.9996849,-0.02510468,-0.015358806,-0.04866211,-0.0021066666,-0.0014552048,-0.00041949202,0.00057149923,0.0024814853,0.0,0.0029520798,0.024719238
0.00043300353,-0.00020117895,-0.0026473044,0.0031895526,0.006349802,-0.013276491,0.0,0.0,0.0,0.13406494,-0.02487805,0.99066025,0.99097264,0.003365658,-0.13402271,-2.3283062e-10,-0.9996849,-0.02510468,-0.030920982,0.019572616,0.0062742233,-0.0016025336,-0.00031953148,0.0006000129,0.0024814853,0.0,0.0029520798,0.024658203
0.0018985458,0.00046497723,-0.0015814546,0.0021237042,0.0071491897,-0.012343872,0.0,0.0,0.0,0.13406494,-0.02487805,0.99066025,0.99097264,0.003365658,-0.13402271,-2.3283062e-10,-0.9996849,-0.02510468,-0.03570938,0.014784202,-0.012879372,-0.0017730679,-0.00024401282,0.00053261593,0.0024814853,0.0,0.0029520798,0.02508545
0.0012323894,0.0009979021,-0.00078206696,0.004388634,0.004617797,-0.015141729,0.0,0.0,0.0,0.13406494,-0.02487805,0.99066025,0.99097264,0.003365658,-0.13402271,-2.3283062e-10,-0.9996849,-0.02510468,0.006189108,-0.012749106,0.030215263,-0.001733257,-0.00030653828,0.00068102917,0.0024814853,0.0,0.0029520798,0.024780273
0.00029977225,-0.0008673352,-0.0013149921,0.0027898587,0.0056836456,-0.014475573,0.0,0.0,0.0,0.13406494,-0.02487805,0.99066025,0.99097264,0.003365658,-0.13402271,-2.3283062e-10,-0.9996849,-0.02510468,-0.017753005,-0.009157807,0.0014848709,-0.0018133557,-0.0003507946,0.00068504835,0.0024814853,0.0,0.0029520798,0.024627686
-9.99216e-05,0.0032628335,-0.00051560486,0.001990473,0.005816877,-0.015807886,0.0,0.0,0.0,0.13406494,-0.02487805,0.99066025,0.99097264,0.003365658,-0.13402271,-2.3283062e-10,-0.9996849,-0.02510468,0.06364989,0.031543612,-0.07991791,-0.0014860395,-0.00019132259,0.00028203358,0.0024814853,0.0,0.0029520798,0.024719238
0.0008326974,0.001397596,-0.00051560486,0.00025846623,0.005816877,-0.014475573,0.0,0.0,0.0,0.13406494,-0.02487805,0.99066025,0.99097264,0.003365658,-0.13402271,-2.3283062e-10,-0.9996849,-0.02510468,-0.0069789886,-0.012749106,-0.051187515,-0.0015135042,-0.0002541115,2.468584e-05,0.0024814853,0.0,0.0029520798,0.024658203
0.0006994661,-0.00033441023,-0.0015814546,0.005321253,0.007948577,-0.014608804,0.0,0.0,0.0,0.13406494,-0.02487805,0.99066025,0.99097264,0.003365658,-0.13402271,-2.3283062e-10,-0.9996849,-0.02510468,0.027736902,0.024361014,-0.040413857,-0.0013672522,-0.0001310359,-0.00017750687,0.0024814853,0.0,0.0029520798,0.02456665
0.0036305524,0.0011311334,-0.00078206696,0.0045218654,0.005816877,-0.01207741,0.0,0.0,0.0,0.13406494,-0.02487805,0.99066025,0.99097264,0.003365658,-0.13402271,-2.3283062e-10,-0.9996849,-0.02510468,0.06484699,-0.010354906,-0.0033025742,-0.001036181,-0.00018215524,-0.0001931322,0.0024814853,0.0,0.0029520798,0.024536133
0.0025647022,-0.0010005664,0.0020157886,0.0030563213,0.0074156523,-0.014608804,0.0,0.0,0.0,0.13406494,-0.02487805,0.99066025,0.99097264,0.003365658,-0.13402271,-2.3283062e-10,-0.9996849,-0.02510468,0.025342703,0.029149428,-0.0452013,-0.0009042865,-3.549733e-05,-0.00041817303,0.0024814853,0.0,0.0029520798,0.02456665
-0.0020983908,-0.0006008727,0.00041701412,0.0023901667,0.0055504143,-0.017006965,0.0,0.0,0.0,0.13406494,-0.02487805,0.99066025,0.99097264,0.003365658,-0.13402271,-2.3283062e-10,-0.9996849,-0.02510468,0.004992008,0.017178416,-0.008091927,-0.00087480503,5.057223e-05,-0.00045654178,0.0024814853,0.0,0.0029520798,0.024627686
0.0013656206,0.0017972896,0.0005502454,0.0018572416,0.004884258,-0.012343872,0.0,0.0,0.0,0.13406494,-0.02487805,0.99066025,0.99097264,0.003365658,-0.13402271,-2.3283062e-10,-0.9996849,-0.02510468,-0.030921102,-0.04985924,-0.058369637,-0.0010250366,-0.00019897682,-0.00074610725,0.0024814853,0.0,0.0029520798,0.02468872
-0.000766078,0.00019851467,0.00041701412,0.002523398,0.0018199403,-0.016340809,0.0,0.0,0.0,0.13406494,-0.02487805,0.99066025,0.99097264,0.003365658,-0.13402271,-2.3283062e-10,-0.9996849,-0.02510468,-0.017752886,-0.036691114,0.0062742233,-0.0011086758,-0.0003814375,-0.0007110056,0.0024814853,0.0,0.0029520798,0.02468872
-0.0023648534,0.0005982085,0.00028378284,0.004788328,0.0042181034,-0.014075879,0.0,0.0,0.0,0.13406494,-0.02487805,0.99066025,0.99097264,0.003365658,-0.13402271,-2.3283062e-10,-0.9996849,-0.02510468,0.0014007092,0.015981302,0.035003662,-0.001096129,-0.00029962382,-0.0005324322,0.0024814853,0.0,0.0029520798,0.024658203
0.0026979335,-0.001267029,-0.00091529824,0.0023901667,0.007948577,-0.014875267,0.0,0.0,0.0,0.13406494,-0.02487805,0.99066025,0.99097264,0.003365658,-0.13402271,-2.3283062e-10,-0.9996849,-0.02510468,0.021751404,0.008798704,0.025427818,-0.0009818913,-0.00025413217,-0.00040263095,0.0024814853,0.0,0.0029520798,0.025299072
0.0025647022,6.52835e-05,0.0005502454,0.00292309,0.004617797,-0.015541423,0.0,0.0,0.0,0.13406494,-0.02487805,0.99066025,0.99097264,0.003365658,-0.13402271,-2.3283062e-10,-0.9996849,-0.02510468,-0.009373188,-0.016340405,-0.049990654,-0.0010238477,-0.00033456352,-0.0006505711,0.0024814853,0.0,0.0029520798,0.024749756
0.00029977225,0.0017972896,-0.002380842,0.0035892464,0.0056836456,-0.016740503,0.0,0.0,0.0,0.13406494,-0.02487805,0.99066025,0.99097264,0.003365658,-0.13402271,-2.3283062e-10,-0.9996849,-0.02510468,-0.020147204,0.006404504,0.03739834,-0.0011194645,-0.00030086818,-0.0004603265,0.0024814853,0.0,0.0029520798,0.024719238
0.0018985458,-0.0047310414,0.00321487,0.0030563213,0.0064830333,-0.013676185,0.0,0.0,0.0,0.13406494,-0.02487805,0.99066025,0.99097264,0.003365658,-0.13402271,-2.3283062e-10,-0.9996849,-0.02510468,0.025342703,-0.024720117,0.012259483,-0.0009871536,-0.0004229644,-0.00039672747,0.0024814853,0.0,0.0029520798,0.02468872
0.0016320832,0.00086467084,-0.0037131545,0.004788328,0.0052839518,-0.014342342,0.0,0.0,0.0,0.13406494,-0.02487805,0.99066025,0.99097264,0.003365658,-0.13402271,-2.3283062e-10,-0.9996849,-0.02510468,-0.00219059,0.073442146,0.111618996,-0.0009931708,-5.3638854e-05,0.00016335116,0.0024814853,0.0,0.0056941845,0.02456665
-0.0014322344,0.00086467084,-0.00011591101,0.003855709,0.004884258,-0.016740503,0.0,0.0,0.0,0.13406494,-0.02487805,0.99066025,0.99097264,0.003365658,-0.13402271,-2.3283062e-10,-0.9996849,-0.02510468,0.006189108,-0.01394622,0.02662468,-0.00095725944,-0.00012310175,0.00029565778,0.0024814853,0.0,0.0056941845,0.024597168
0.00096592866,-0.0011337977,0.0005502454,0.005321253,0.006882727,-0.011144791,0.0,0.0,0.0,0.13406494,-0.02487805,0.99066025,0.99097264,0.003365658,-0.13402271,-2.3283062e-10,-0.9996849,-0.02510468,0.0361166,-0.019931719,0.035004616,-0.00077189016,-0.00022214484,0.00046920255,0.0024814853,0.0,0.0056941845,0.024627686
0.002431471,-0.0014002601,0.00041701412,0.0034560151,0.0071491897,-0.015141729,0.0,0.0,0.0,0.13406494,-0.02487805,0.99066025,0.99097264,0.003365658,-0.13402271,-2.3283062e-10,-0.9996849,-0.02510468,-0.0069789886,-0.028311417,-0.03921604,-0.0008029257,-0.00036259118,0.00027077633,0.0024814853,0.0,0.0056941845,0.02468872
-0.00049961545,0.0037957581,-0.0013149921,0.0006581601,0.0047510285,-0.013942648,0.0,0.0,0.0,0.13406494,-0.02487805,0.99066025,0.99097264,0.003365658,-0.13402271,-2.3283062e-10,-0.9996849,-0.02510468,0.021751404,-0.004369393,-0.018865585,-0.00069015403,-0.00038262518,0.00017509452,0.0024814853,0.0,0.0056941845,0.024719238
0.0016320832,0.0007314398,0.0010831701,-0.001740003,0.004617797,-0.013942648,0.0,0.0,0.0,0.13406494,-0.02487805,0.99066025,0.99097264,0.003365658,-0.13402271,-2.3283062e-10,-0.9996849,-0.02510468,0.056467295,0.018375501,0.007470131,-0.0004043668,-0.00028883456,0.00021156971,0.0024814853,0.0,0.0056941845,0.024719238
0.003897015,0.00046497723,-0.0018479172,0.0027898587,0.0034187157,-0.015141729,0.0,0.0,0.0,0.13406494,-0.02487805,0.99066025,0.99097264,0.003365658,-0.13402271,-2.3283062e-10,-0.9996849,-0.02510468,0.020554304,-0.039085314,-0.020062447,-0.0002995734,-0.00048281695,0.00011019963,0.0024814853,0.0,0.0056941845,0.024597168
0.002431471,0.0011311334,-0.0014482234,0.0021237042,0.0056836456,-0.015541423,0.0,0.0,0.0,0.13406494,-0.02487805,0.99066025,0.99097264,0.003365658,-0.13402271,-2.3283062e-10,-0.9996849,-0.02510468,0.0313282,-0.041479513,-0.0009088516,-0.00014143455,-0.00068780046,0.00010510437,0.0024814853,0.0,0.0056941845,0.02456665
0.0017653145,-6.794778e-05,-0.00011591101,0.004788328,0.0064830333,-0.014875267,0.0,0.0,0.0,0.13406494,-0.02487805,0.99066025,0.99097264,0.003365658,-0.13402271,-2.3283062e-10,-0.9996849,-0.02510468,-0.00219059,-0.01634042,0.013456345,-0.00015168033,-0.0007660635,0.00017186056,0.0024814853,0.0,0.0056941845,0.025360107
-0.00049961545,-0.0037984224,0.0008167075,-0.00014122762,0.0043513346,-0.016340809,0.0,0.0,0.0,0.13406494,-0.02487805,0.99066025,0.99097264,0.003365658,-0.13402271,-2.3283062e-10,-0.9996849,-0.02510468,-0.00219059,-0.042676643,0.01585102,-0.00016187488,-0.0009756164,0.00025025636,0.0024814853,0.0,0.0056941845,0.024780273
0.0022982396,-0.0020664164,-0.00011591101,0.0018572416,0.0070159584,-0.013676185,0.0,0.0,0.0,0.13406494,-0.02487805,0.99066025,0.99097264,0.003365658,-0.13402271,-2.3283062e-10,-0.9996849,-0.02510468,-0.032118082,-0.012749121,0.008667946,-0.0003216559,-0.0010344839,0.0002923448,0.0024814853,0.0,0.0056941845,0.024658203
-0.000766078,0.0007314398,0.0024154824,0.00092462264,0.007682115,-0.014075879,0.0,0.0,0.0,0.13406494,-0.02487805,0.99066025,0.99097264,0.003365658,-0.13402271,-2.3283062e-10,-0.9996849,-0.02510468,0.015765905,0.020769715,-0.004500389,-0.0002412181,-0.00092546287,0.00026838115,0.0024814853,0.0,0.0056941845,0.02456665
-0.001698697,0.0020637522,0.00015055155,0.005854178,0.006749496,-0.013942648,0.0,0.0,0.0,0.13406494,-0.02487805,0.99066025,0.99097264,0.003365658,-0.13402271,-2.3283062e-10,-0.9996849,-0.02510468,-0.00219059,0.008798704,-0.015274048,-0.00025096495,-0.000876842,0.00019066902,0.0024814853,0.0,0.0056941845,0.02456665
-9.99216e-05,-0.00033441023,-0.002913767,0.0013243165,0.006882727,-0.01314326,0.0,0.0,0.0,0.13406494,-0.02487805,0.99066025,0.99097264,0.003365658,-0.13402271,-2.3283062e-10,-0.9996849,-0.02510468,-0.022541285,-0.015143305,-0.046399117,-0.00036241655,-0.00094817433,-4.2279906e-05,0.0024814853,0.0,0.0056941845,0.02456665
0.0006994661,0.00033174595,0.0025487137,0.001590779,0.0066162646,-0.013676185,0.0,0.0,0.0,0.13406494,-0.02487805,0.99066025,0.99097264,0.003365658,-0.13402271,-2.3283062e-10,-0.9996849,-0.02510468,-0.06324279,-0.027114317,0.03141308,-0.0006768184,-0.0010790051,0.000114996874,0.0024814853,0.0,0.0056941845,0.024658203
0.0014988519,0.00033174595,0.0030816388,0.0050547905,0.00821504,-0.016740503,0.0,0.0,0.0,0.13406494,-0.02487805,0.99066025,0.99097264,0.003365658,-0.13402271,-2.3283062e-10,-0.9996849,-0.02510468,0.0073862076,0.018375516,-0.08470631,-0.00063650333,-0.0009817325,-0.00030910963,0.0024814853,0.0,0.0056941845,0.024780273
0.0040302463,-0.00033441023,0.0013496326,0.0022569355,0.007815346,-0.014875267,0.0,0.0,0.0,0.13406494,-0.02487805,0.99066025,0.99097264,0.003365658,-0.13402271,-2.3283062e-10,-0.9996849,-0.02510468,0.0325253,0.039923325,-0.004500389,-0.00047069433,-0.0007772072,-0.00033006602,0.0024814853,0.0,0.0056941845,0.024658203
0.00096592866,0.0024634458,-0.00038237358,0.0022569355,0.005417183,-0.016074346,0.0,0.0,0.0,0.13406494,-0.02487805,0.99066025,0.99097264,0.003365658,-0.13402271,-2.3283062e-10,-0.9996849,-0.02510468,-0.009373188,-0.016340405,-0.0068941116,-0.0005152068,-0.00085502316,-0.00036288623,0.0024814853,0.0,0.0056941845,0.024597168
-0.0019651596,-0.00020117895,-0.00038237358,0.0034560151,0.004484566,-0.015141729,0.0,0.0,0.0,0.13406494,-0.02487805,0.99066025,0.99097264,0.003365658,-0.13402271,-2.3283062e-10,-0.9996849,-0.02510468,-0.03451228,-0.009157792,0.018244743,-0.0006851921,-0.000896537,-0.0002698481,0.0024814853,0.0,0.0056941845,0.02456665
0.0005662348,0.00019851467,0.0018825573,0.0030563213,0.007948577,-0.013276491,0.0,0.0,0.0,0.13406494,-0.02487805,0.99066025,0.99097264,0.003365658,-0.13402271,-2.3283062e-10,-0.9996849,-0.02510468,0.009780407,0.01957263,0.02782154,-0.00063286413,-0.00079419115,-0.00012939115,0.0024814853,0.0,0.0056941845,0.024658203
-0.0008993093,-0.001267029,-0.002380842,0.004255403,0.0075488836,-0.015141729,0.0,0.0,0.0,0.13406494,-0.02487805,0.99066025,0.99097264,0.003365658,-0.13402271,-2.3283062e-10,-0.9996849,-0.02510468,-0.0069789886,-0.029508516,0.017046928,-0.00066459476,-0.0009377628,-4.3509557e-05,0.0024814853,0.0,0.0056941845,0.025421143
-0.0018319283,-6.794778e-05,-0.002913767,-0.0002744589,0.008348271,-0.010878328,0.0,0.0,0.0,0.13406494,-0.02487805,0.99066025,0.99097264,0.003365658,-0.13402271,-2.3283062e-10,-0.9996849,-0.02510468,-0.0045847893,0.017178416,0.046975136,-0.0006841957,-0.0008471819,0.00019158366,0.0024814853,0.0,0.0056941845,0.024719238
0.002431471,0.00086467084,0.00041701412,0.0011910852,0.005816877,-0.013409723,0.0,0.0,0.0,0.13406494,-0.02487805,0.99066025,0.99097264,0.003365658,-0.13402271,-2.3283062e-10,-0.9996849,-0.02510468,0.0014007092,-0.031902716,-0.052384377,-0.0006737712,-0.0010024596,-7.1296134e-05,0.0024814853,0.0,0.0056941845,0.024627686
3.3309683e-05,0.0007314398,-0.0027805357,0.004255403,0.0084815025,-0.013809416,0.0,0.0,0.0,0.13406494,-0.02487805,0.99066025,0.99097264,0.003365658,-0.13402271,-2.3283062e-10,-0.9996849,-0.02510468,-0.016555786,-0.009157807,0.018244743,-0.0007531813,-0.0010432363,2.028406e-05,0.0024814853,0.0,0.0056941845,0.02456665
0.00096592866,0.0020637522,0.00041701412,0.004788328,0.007282421,-0.014475573,0.0,0.0,0.0,0.13406494,-0.02487805,0.99066025,0.99097264,0.003365658,-0.13402271,-2.3283062e-10,-0.9996849,-0.02510468,-0.021344185,0.02436103,-0.0068941116,-0.0008561363,-0.000916215,-1.4287918e-05,0.0024814853,0.0,0.0056941845,0.024627686
0.0030976273,6.52835e-05,-0.0002491423,0.0018572416,0.002619328,-0.014608804,0.0,0.0,0.0,0.13406494,-0.02487805,0.99066025,0.99097264,0.003365658,-0.13402271,-2.3283062e-10,-0.9996849,-0.02510468,0.025342703,-0.004369393,0.0385952,-0.0007251422,-0.0009334809,0.00017875951,0.0024814853,0.0,0.0056941845,0.024627686
-9.99216e-05,-0.0014002601,-0.0022476108,0.0045218654,0.004484566,-0.012610335,0.0,0.0,0.0,0.13406494,-0.02487805,0.99066025,0.99097264,0.003365658,-0.13402271,-2.3283062e-10,-0.9996849,-0.02510468,-0.052468777,-0.034296915,-0.11942196,-0.0009838603,-0.0011002981,-0.00041924405,0.0024814853,0.0,0.0027494535,0.024658203
0.00029977225,-0.0033987288,-0.0025140734,0.0050547905,0.0084815025,-0.015141729,0.0,0.0,0.0,0.13406494,-0.02487805,0.99066025,0.99097264,0.003365658,-0.13402271,-2.3283062e-10,-0.9996849,-0.02510468,-0.0404979,0.013587117,0.042186737,-0.0011814306,-0.0010268611,-0.00020621414,0.0024814853,0.0,0.0027494535,0.024627686
-0.00049961545,-0.002865804,-0.0025140734,0.0006581601,0.0070159584,-0.009945711,0.0,0.0,0.0,0.13406494,-0.02487805,0.99066025,0.99097264,0.003365658,-0.13402271,-2.3283062e-10,-0.9996849,-0.02510468,-0.0333153,-0.01753752,-0.015274048,-0.0013421,-0.0011094145,-0.0002815533,0.0024814853,0.0,0.0027494535,0.024658203
0.0006994661,-0.0006008727,0.0006834767,0.004788328,0.0075488836,-0.012210641,0.0,0.0,0.0,0.13406494,-0.02487805,0.99066025,0.99097264,0.003365658,-0.13402271,-2.3283062e-10,-0.9996849,-0.02510468,-0.053665996,-0.028311417,-0.017668724,-0.0016037194,-0.0012454245,-0.00036848919,0.0024814853,0.0,0.0027494535,0.024627686
0.0017653145,0.0020637522,-0.0010485295,0.006253872,0.007282421,-0.0128767975,0.0,0.0,0.0,0.13406494,-0.02487805,0.99066025,0.99097264,0.003365658,-0.13402271,-2.3283062e-10,-0.9996849,-0.02510468,-0.015358686,0.004010305,-0.024850845,-0.0016724943,-0.0012191458,-0.00049090094,0.0024814853,0.0,0.0027494535,0.024597168
0.0010991581,-0.0006008727,0.00015055155,0.0045218654,0.005950108,-0.014475573,0.0,0.0,0.0,0.13406494,-0.02487805,0.99066025,0.99097264,0.003365658,-0.13402271,-2.3283062e-10,-0.9996849,-0.02510468,-0.07042539,-0.00077810884,0.00028800964,-0.002016259,-0.0012169407,-0.0004870064,0.0024814853,0.0,0.0027494535,0.025238037
0.0018985458,0.0011311334,-0.0021143795,0.0037224777,0.0047510285,-0.013276491,0.0,0.0,0.0,0.13406494,-0.02487805,0.99066025,0.99097264,0.003365658,-0.13402271,-2.3283062e-10,-0.9996849,-0.02510468,0.048087597,0.007601604,0.067326546,-0.0017657396,-0.001172848,-0.00014793864,0.0024814853,0.0,0.0027494535,0.024902344
0.0005662348,0.0011311334,-0.0037131545,0.0034560151,0.0070159584,-0.010345405,0.0,0.0,0.0,0.13406494,-0.02487805,0.99066025,0.99097264,0.003365658,-0.13402271,-2.3283062e-10,-0.9996849,-0.02510468,-0.015358686,0.014784202,-0.029639244,-0.0018337044,-0.0010930628,-0.00029539515,0.0024814853,0.0,0.0027494535,0.024658203
0.00043300353,0.00019851467,-0.00064883614,-0.00054092146,0.0034187157,-0.014608804,0.0,0.0,0.0,0.13406494,-0.02487805,0.99066025,0.99097264,0.003365658,-0.13402271,-2.3283062e-10,-0.9996849,-0.02510468,0.060058594,-0.041479513,-0.0068941116,-0.0015242429,-0.001294995,-0.00032838873,0.0024814853,0.0,0.0027494535,0.02456665
0.005362559,0.0007314398,0.00015055155,0.002523398,0.0062165707,-0.015674654,0.0,0.0,0.0,0.13406494,-0.02487805,0.99066025,0.99097264,0.003365658,-0.13402271,-2.3283062e-10,-0.9996849,-0.02510468,-0.00219059,0.041120425,-0.041610718,-0.0015275746,-0.0010829178,-0.00053480035,0.0024814853,0.0,0.0027494535,0.024597168
0.0006994661,-0.0014002601,0.0010831701,0.0049215592,0.005417183,-0.013542954,0.0,0.0,0.0,0.13406494,-0.02487805,0.99066025,0.99097264,0.003365658,-0.13402271,-2.3283062e-10,-0.9996849,-0.02510468,0.024145603,0.026755214,0.015850067,-0.0013992087,-0.00094372715,-0.000452876,0.0024814853,0.0,0.0027494535,0.024597168
-0.000766078,-0.0033987288,-0.0015814546,0.0050547905,0.006882727,-0.015274961,0.0,0.0,0.0,0.13406494,-0.02487805,0.99066025,0.99097264,0.003365658,-0.13402271,-2.3283062e-10,-0.9996849,-0.02510468,0.0385108,-0.022325918,-0.032032967,-0.0011996587,-0.0010506382,-0.0006107765,0.0024814853,0.0,0.0027494535,0.024749756
0.00016654097,0.0019305209,0.0005502454,0.0046550967,0.0055504143,-0.014608804,0.0,0.0,0.0,0.13406494,-0.02487805,0.99066025,0.99097264,0.003365658,-0.13402271,-2.3283062e-10,-0.9996849,-0.02510468,0.0014007092,0.004010305,0.02183628,-0.0011866569,-0.0010253334,-0.0004985412,0.0024814853,0.0,0.0027494535,0.024627686
-0.0011657719,0.0011311334,-0.00011591101,0.002523398,0.0019531716,-0.015541423,0.0,0.0,0.0,0.13406494,-0.02487805,0.99066025,0.99097264,0.003365658,-0.13402271,-2.3283062e-10,-0.9996849,-0.02510468,0.0014007092,0.015981317,0.045778275,-0.0011737201,-0.0009403001,-0.00026715716,0.0024814853,0.0,0.0027494535,0.024597168
0.002431471,0.0031296022,-0.00051560486,-0.0018732324,0.008614734,-0.014475573,0.0,0.0,0.0,0.13406494,-0.02487805,0.99066025,0.99097264,0.003365658,-0.13402271,-2.3283062e-10,-0.9996849,-0.02510468,0.052875996,0.00041900575,-0.01168251,-0.0009034715,-0.0009335036,-0.00032423393,0.0024814853,0.0,0.0027494535,0.024627686
-0.0014322344,0.0032628335,-0.00011591101,0.0013243165,0.0043513346,-0.015274961,0.0,0.0,0.0,0.13406494,-0.02487805,0.99066025,0.99097264,0.003365658,-0.13402271,-2.3283062e-10,-0.9996849,-0.02510468,-0.03810358,0.00041900575,-0.023653984,-0.001089472,-0.0009267411,-0.0004408827,0.0024814853,0.0,0.0027494535,0.024627686
0.00043300353,-0.001267029,0.0005502454,0.0023901667,0.0070159584,-0.015941115,0.0,0.0,0.0,0.13406494,-0.02487805,0.99066025,0.99097264,0.003365658,-0.13402271,-2.3283062e-10,-0.9996849,-0.02510468,0.014568806,-0.021128818,0.011061668,-0.0010111807,-0.0010277515,-0.00038336994,0.0024814853,0.0,0.0027494535,0.024658203
0.0012323894,0.00019851467,-0.0014482234,0.006786797,0.0066162646,-0.014875267,0.0,0.0,0.0,0.13406494,-0.02487805,0.99066025,0.99097264,0.003365658,-0.13402271,-2.3283062e-10,-0.9996849,-0.02510468,0.026539803,-0.016340405,0.03979206,-0.00087342574,-0.0011043147,-0.0001824928,0.0024814853,0.0,0.0027494535,0.025421143
-0.00023315288,-0.0011337977,0.00028378284,0.0003916975,0.010479972,-0.014608804,0.0,0.0,0.0,0.13406494,-0.02487805,0.99066025,0.99097264,0.003365658,-0.13402271,-2.3283062e-10,-0.9996849,-0.02510468,-0.027329803,-0.01753752,-0.01647091,-0.0010057075,-0.0011864807,-0.0002639349,0.0024814853,0.0,0.0027494535,0.024658203
-0.00023315288,0.0031296022,0.00041701412,0.004388634,0.0074156523,-0.012210641,0.0,0.0,0.0,0.13406494,-0.02487805,0.99066025,0.99097264,0.003365658,-0.13402271,-2.3283062e-10,-0.9996849,-0.02510468,-0.0369066,0.006404504,0.007470131,-0.0011852119,-0.0011485259,-0.00022526455,0.0024814853,0.0,0.0027494535,0.02456665
0.00096592866,-0.00020117895,0.0010831701,0.0005249288,0.006749496,-0.01753989,0.0,0.0,0.0,0.13406494,-0.02487805,0.99066025,0.99097264,0.003365658,-0.13402271,-2.3283062e-10,-0.9996849,-0.02510468,-0.028526783,0.026755229,-0.020062447,-0.0013219198,-0.0010090071,-0.00032445046,0.0024814853,0.0,0.0027494535,0.024597168
0.0012323894,-0.00033441023,-0.00011591101,0.0014575478,0.00821504,-0.014742035,0.0,0.0,0.0,0.13406494,-0.02487805,0.99066025,0.99097264,0.003365658,-0.13402271,-2.3283062e-10,-0.9996849,-0.02510468,-0.0345124,-0.013946205,0.057748795,-0.0014878722,-0.0010736932,-3.4084253e-05,0.0024814853,0.0,0.0027494535,0.024658203
0.002964396,0.00019851467,-0.0026473044,0.0050547905,0.0047510285,-0.014342342,0.0,0.0,0.0,0.13406494,-0.02487805,0.99066025,0.99097264,0.003365658,-0.13402271,-2.3283062e-10,-0.9996849,-0.02510468,0.016963005,0.0028132051,-0.027245522,-0.0013956178,-0.0010542587,-0.00017014144,0.0024814853,0.0,0.0027494535,0.02468872
0.002031777,0.00019851467,-0.0002491423,0.00025846623,0.006749496,-0.015674654,0.0,0.0,0.0,0.13406494,-0.02487805,0.99066025,0.99097264,0.003365658,-0.13402271,-2.3283062e-10,-0.9996849,-0.02510468,-0.0045847893,0.038726225,0.036200523,-0.0014115637,-0.0008553563,1.1711876e-05,0.0024814853,0.0,0.0027494535,0.024658203
-0.00023315288,-0.0035319598,0.0013496326,0.0033227839,0.009547353,-0.013676185,0.0,0.0,0.0,0.13406494,-0.02487805,0.99066025,0.99097264,0.003365658,-0.13402271,-2.3283062e-10,-0.9996849,-0.02510468,0.00020360947,0.012390003,-0.055975914,-0.0014034879,-0.0007891295,-0.00026822626,0.0024814853,0.0,0.0027494535,0.024597168
0.002031777,0.003928989,-0.00051560486,0.002523398,0.0055504143,-0.013409723,0.0,0.0,0.0,0.13406494,-0.02487805,0.99066025,0.99097264,0.003365658,-0.13402271,-2.3283062e-10,-0.9996849,-0.02510468,0.06843829,0.018375516,0.00028800964,-0.001054279,-0.00069330627,-0.00026544507,0.0024814853,0.0,0.0027494535,0.024627686
0.0021650083,-0.0025993413,0.0020157886,0.001590779,0.004084872,-0.0119441785,0.0,0.0,0.0,0.13406494,-0.02487805,0.99066025,0.99097264,0.003365658,-0.13402271,-2.3283062e-10,-0.9996849,-0.02510468,0.0373137,0.035134926,-0.0547781,-0.00086243916,-0.00051416515,-0.00053800835,0.0024814853,0.0,0.0027494535,0.024597168
0.0034973212,-6.794778e-05,-0.0011817608,-0.0002744589,0.009947047,-0.014608804,0.0,0.0,0.0,0.13406494,-0.02487805,0.99066025,0.99097264,0.003365658,-0.13402271,-2.3283062e-10,-0.9996849,-0.02510468,0.06484699,0.06027405,0.0038785934,-0.000533892,-0.0002102241,-0.0005159253,0.0024814853,0.0,0.0027494535,0.024658203
-0.0008993093,-0.0004676415,0.00028378284,0.0017240103,0.005816877,-0.015008498,0.0,0.0,0.0,0.13406494,-0.02487805,0.99066025,0.99097264,0.003365658,-0.13402271,-2.3283062e-10,-0.9996849,-0.02510468,-0.008176088,0.020769715,0.009865761,-0.000572103,-0.00010532441,-0.00046401683,0.0024814853,0.0,0.0027494535,0.024719238
0.0013656206,0.0017972896,-0.0017146859,0.00025846623,0.005950108,-0.014875267,0.0,0.0,0.0,0.13406494,-0.02487805,0.99066025,0.99097264,0.003365658,-0.13402271,-2.3283062e-10,-0.9996849,-0.02510468,0.010977507,-0.033099815,-0.041609764,-0.00051435496,-0.00027029688,-0.0006697456,0.0024814853,0.0,0.0027494535,0.025390625
0.0021650083,0.00086467084,-0.00038237358,0.002523398,0.0032854844,-0.017673122,0.0,0.0,0.0,0.13406494,-0.02487805,0.99066025,0.99097264,0.003365658,-0.13402271,-2.3283062e-10,-0.9996849,-0.02510468,-0.0404979,-0.013946205,-0.0033025742,-0.00071427267,-0.00033867641,-0.00068290974,0.0024814853,0.0,0.0027494535,0.024627686
0.00096592866,0.00019851467,-0.0027805357,0.002523398,0.008747965,-0.016340809,0.0,0.0,0.0,0.13406494,-0.02487805,0.99066025,0.99097264,0.003365658,-0.13402271,-2.3283062e-10,-0.9996849,-0.02510468,0.0073862076,0.036332026,0.040989876,-0.0006737703,-0.00015532291,-0.00047454584,0.0024814853,0.0,0.0027494535,0.024597168
0.00096592866,0.0024634458,0.0013496326,-0.000807384,0.004884258,-0.014475573,0.0,0.0,0.0,0.13406494,-0.02487805,0.99066025,0.99097264,0.003365658,-0.13402271,-2.3283062e-10,-0.9996849,-0.02510468,0.025342703,-0.017537504,-0.035624504,-0.00054368796,-0.00024223383,-0.00065029564,0.0024814853,0.0,0.0027494535,0.024627686
0.0005662348,-6.794778e-05,0.0029484075,0.005720947,0.0051507205,-0.014075879,0.0,0.0,0.0,0.13406494,-0.02487805,0.99066025,0.99097264,0.003365658,-0.13402271,-2.3283062e-10,-0.9996849,-0.02510468,-0.020147085,0.019572616,-0.044005394,-0.00064170494,-0.00014315959,-0.0008670711,0.0024814853,0.0,0.0027494535,0.02468872
0.0012323894,0.002596677,-0.0013149921,0.0041221716,0.006349802,-0.015674654,0.0,0.0,0.0,0.13406494,-0.02487805,0.99066025,0.99097264,0.003365658,-0.13402271,-2.3283062e-10,-0.9996849,-0.02510468,-0.11232388,0.01837553,-0.026047707,-0.0012001158,-5.0566145e-05,-0.0009929743,-0.00029164762,0.0,0.0027494535,0.02468872
0.0016320832,-0.0010005664,-0.0030469983,0.004388634,0.0038184095,-0.012610335,0.0,0.0,0.0,0.13406494,-0.02487805,0.99066025,0.99097264,0.003365658,-0.13402271,-2.3283062e-10,-0.9996849,-0.02510468,-0.00219059,0.0016161054,0.007470131,-0.0012050681,-4.2232787e-05,-0.00095065875,-0.00029164762,0.0,0.0027494535,0.024658203
-0.002231622,0.001397596,0.00015055155,0.0021237042,0.0071491897,-0.01420911,0.0,0.0,0.0,0.13406494,-0.02487805,0.99066025,0.99097264,0.003365658,-0.13402271,-2.3283062e-10,-0.9996849,-0.02510468,-0.011767387,-0.060633138,0.0338068,-0.0012578797,-0.00034518732,-0.00077687146,-0.00029164762,0.0,0.0027494535,0.024597168
-0.00049961545,-0.0014002601,-0.002380842,0.004255403,0.0060833395,-0.017273428,0.0,0.0,0.0,0.13406494,-0.02487805,0.99066025,0.99097264,0.003365658,-0.13402271,-2.3283062e-10,-0.9996849,-0.02510468,0.054073095,-0.05345054,0.029019356,-0.0009812248,-0.0006107141,-0.00062789035,-0.00029164762,0.0,0.0027494535,0.024597168
0.0008326974,6.52835e-05,0.0021490199,0.00292309,0.0051507205,-0.015541423,0.0,0.0,0.0,0.13406494,-0.02487805,0.99066025,0.99097264,0.003365658,-0.13402271,-2.3283062e-10,-0.9996849,-0.02510468,0.00020360947,0.030346513,0.0385952,-0.0009753007,-0.00045592795,-0.00043177494,-0.00029164762,0.0,0.0027494535,0.024749756
0.0008326974,0.0027299083,0.00028378284,0.002523398,0.005816877,-0.015541423,0.0,0.0,0.0,0.13406494,-0.02487805,0.99066025,0.99097264,0.003365658,-0.13402271,-2.3283062e-10,-0.9996849,-0.02510468,-0.047680378,0.027952328,0.012259483,-0.0012088261,-0.00031388667,-0.00036831867,-0.00029164762,0.0,0.0027494535,0.024749756
0.002964396,-0.0015334914,-0.0019811485,0.0017240103,0.007682115,-0.011810947,0.0,0.0,0.0,0.13406494,-0.02487805,0.99066025,0.99097264,0.003365658,-0.13402271,-2.3283062e-10,-0.9996849,-0.02510468,0.018160105,0.031543627,-0.0021066666,-0.0011119813,-0.00015459911,-0.0003770104,-0.00029164762,0.0,0.0027494535,0.024963379
0.00096592866,0.0012643647,-0.0026473044,0.0021237042,0.0070159584,-0.014742035,0.0,0.0,0.0,0.13406494,-0.02487805,0.99066025,0.99097264,0.003365658,-0.13402271,-2.3283062e-10,-0.9996849,-0.02510468,0.013371706,-0.01514332,0.023033142,-0.001039563,-0.00022954271,-0.00025995966,-0.00029164762,0.0,0.0027494535,0.025909424
-0.0011657719,0.0007314398,-0.00078206696,0.0023901667,0.005417183,-0.012210641,0.0,0.0,0.0,0.13406494,-0.02487805,0.99066025,0.99097264,0.003365658,-0.13402271,-2.3283062e-10,-0.9996849,-0.02510468,-0.045286298,0.006404504,-0.051187515,-0.0012607967,-0.00019637248,-0.0005145974,-0.00029164762,0.0,0.0027494535,0.02532959
-0.00036638416,-0.0025993413,-0.00038237358,0.0014575478,0.008348271,-0.014608804,0.0,0.0,0.0,0.13406494,-0.02487805,0.99066025,0.99097264,0.003365658,-0.13402271,-2.3283062e-10,-0.9996849,-0.02510468,-0.0045847893,0.018375516,-0.051187515,-0.0012774166,-0.00010351304,-0.00076796196,-0.00029164762,0.0,0.0027494535,0.025146484
0.0006994661,0.0023302145,0.00041701412,0.0046550967,0.0060833395,-0.01420911,0.0,0.0,0.0,0.13406494,-0.02487805,0.99066025,0.99097264,0.003365658,-0.13402271,-2.3283062e-10,-0.9996849,-0.02510468,0.025342703,-0.041479543,0.013456345,-0.0011443159,-0.00031039317,-0.00069684046,-0.00029164762,0.0,0.0027494535,0.024749756
0.00043300353,0.00046497723,-0.0017146859,0.00012523495,0.0056836456,-0.016207578,0.0,0.0,0.0,0.13406494,-0.02487805,0.99066025,0.99097264,0.003365658,-0.13402271,-2.3283062e-10,-0.9996849,-0.02510468,0.00020360947,0.00041900575,0.0026826859,-0.0011375763,-0.00030674617,-0.00067994284,-0.00029164762,0.0,0.0027494535,0.02456665
0.0017653145,-0.00073410396,-0.0010485295,0.0045218654,0.0064830333,-0.01420911,0.0,0.0,0.0,0.13406494,-0.02487805,0.99066025,0.99097264,0.003365658,-0.13402271,-2.3283062e-10,-0.9996849,-0.02510468,0.019357204,0.00041900575,-0.018865585,-0.0010351024,-0.00030311738,-0.000770871,-0.00029164762,0.0,0.0027494535,0.024597168
-0.0011657719,6.52835e-05,-0.00038237358,0.005188022,0.005017489,-0.015274961,0.0,0.0,0.0,0.13406494,-0.02487805,0.99066025,0.99097264,0.003365658,-0.13402271,-2.3283062e-10,-0.9996849,-0.02510468,0.006189108,-0.016340405,-0.03682232,-0.0009989814,-0.00038330382,-0.00095112826,-0.00029164762,0.0,0.0027494535,0.024658203
0.0010991581,0.00086467084,-0.0043793106,0.0013243165,0.00821504,-0.014342342,0.0,0.0,0.0,0.13406494,-0.02487805,0.99066025,0.99097264,0.003365658,-0.13402271,-2.3283062e-10,-0.9996849,-0.02510468,0.0014007092,0.009995818,-0.0009088516,-0.000986983,-0.00033140823,-0.0009509169,-0.00029164762,0.0,0.0027494535,0.024627686
-0.002631316,-6.794778e-05,0.0022822511,0.005321253,0.008747965,-0.015008498,0.0,0.0,0.0,0.13406494,-0.02487805,0.99066025,0.99097264,0.003365658,-0.13402271,-2.3283062e-10,-0.9996849,-0.02510468,0.0421021,-0.009157807,-0.07273579,-0.0007715375,-0.00037554023,-0.0013098413,-0.00029164762,0.0,0.0027494535,0.024627686
0.002431471,-0.0017999539,0.0012164013,0.0033227839,0.0042181034,-0.0106118675,0.0,0.0,0.0,0.13406494,-0.02487805,0.99066025,0.99097264,0.003365658,-0.13402271,-2.3283062e-10,-0.9996849,-0.02510468,0.028934002,0.018375516,0.009865761,-0.00062300975,-0.00028178497,-0.0012539633,-0.00029164762,0.0,0.0027494535,0.02456665
0.002431471,-0.0015334914,0.0016160952,0.0035892464,0.0055504143,-0.013676185,0.0,0.0,0.0,0.13406494,-0.02487805,0.99066025,0.99097264,0.003365658,-0.13402271,-2.3283062e-10,-0.9996849,-0.02510468,0.015765905,-0.036691114,-0.035624504,-0.0005410652,-0.00046383165,-0.0014258161,-0.00029164762,0.0,0.0027494535,0.024597168
0.002431471,-0.0017999539,-0.0013149921,0.00292309,0.009547353,-0.013942648,0.0,0.0,0.0,0.13406494,-0.02487805,0.99066025,0.99097264,0.003365658,-0.13402271,-2.3283062e-10,-0.9996849,-0.02510468,0.06484699,-0.011551991,0.02662468,-0.00021412491,-0.0005192724,-0.0012855637,-0.00029164762,0.0,0.0027494535,0.02532959
0.0006994661,-0.0037984224,-0.0014482234,0.0027898587,0.0060833395,-0.0119441785,0.0,0.0,0.0,0.13406494,-0.02487805,0.99066025,0.99097264,0.003365658,-0.13402271,-2.3283062e-10,-0.9996849,-0.02510468,-0.008176088,-0.01514332,0.0385952,-0.00025393473,-0.00059239264,-0.00108616,-0.00029164762,0.0,0.0027494535,0.024871826
0.0025647022,-0.0032654975,0.0012164013,0.0034560151,0.006349802,-0.016740503,0.0,0.0,0.0,0.13406494,-0.02487805,0.99066025,0.99097264,0.003365658,-0.13402271,-2.3283062e-10,-0.9996849,-0.02510468,-0.03331518,0.0028132051,-0.01647091,-0.00041924097,-0.0005753647,-0.0011630837,-0.00029164762,0.0,0.0027494535,0.024627686
0.0012323894,0.00046497723,1.7320272e-05,0.0010578539,0.00928089,-0.014342342,0.0,0.0,0.0,0.13406494,-0.02487805,0.99066025,0.99097264,0.003365658,-0.13402271,-2.3283062e-10,-0.9996849,-0.02510468,-0.058454394,-0.023523018,-0.012879372,-0.0007094167,-0.000690103,-0.0012216652,-0.00029164762,0.0,0.0027494535,0.024597168
0.0005662348,-6.794778e-05,-0.00091529824,0.00079139136,0.007282421,-0.015008498,0.0,0.0,0.0,0.13406494,-0.02487805,0.99066025,0.99097264,0.003365658,-0.13402271,-2.3283062e-10,-0.9996849,-0.02510468,-0.0045847893,0.02436103,0.0062742233,-0.00072879356,-0.0005648474,-0.0011841857,-0.00029164762,0.0,0.0027494535,0.024658203
0.0013656206,0.00019851467,-0.0022476108,0.0023901667,0.007682115,-0.016740503,0.0,0.0,0.0,0.13406494,-0.02487805,0.99066025,0.99097264,0.003365658,-0.13402271,-2.3283062e-10,-0.9996849,-0.02510468,-0.021344185,0.030346528,0.040989876,-0.0008318705,-0.0004102905,-0.00097331544,-0.00029164762,0.0,0.0027494535,0.024627686
0.0017653145,-0.00020117895,-0.0011817608,0.0031895526,0.0075488836,-0.012743566,0.0,0.0,0.0,0.13406494,-0.02487805,0.99066025,0.99097264,0.003365658,-0.13402271,-2.3283062e-10,-0.9996849,-0.02510468,-0.0404979,0.014784202,-0.009287834,-0.0010302006,-0.00033431803,-0.001014888,-0.00029164762,0.0,0.0027494535,0.024719238
0.002031777,0.0024634458,0.0029484075,0.0022569355,0.0075488836,-0.013676185,0.0,0.0,0.0,0.13406494,-0.02487805,0.99066025,0.99097264,0.003365658,-0.13402271,-2.3283062e-10,-0.9996849,-0.02510468,0.0025978088,-0.0031722933,-0.027245522,-0.0010120606,-0.00034850792,-0.0011460412,-0.00029164762,0.0,0.0027494535,0.024658203
0.0012323894,0.0009979021,-0.0017146859,0.0011910852,0.008747965,-0.0119441785,0.0,0.0,0.0,0.13406494,-0.02487805,0.99066025,0.99097264,0.003365658,-0.13402271,-2.3283062e-10,-0.9996849,-0.02510468,-0.03451228,-0.007960692,0.03979206,-0.0011795616,-0.00038656883,-0.0009413507,-0.00029164762,0.0,0.0027494535,0.024627686
0.002031777,-0.0020664164,0.00028378284,0.004388634,0.0047510285,-0.017806353,0.0,0.0,0.0,0.13406494,-0.02487805,0.99066025,0.99097264,0.003365658,-0.13402271,-2.3283062e-10,-0.9996849,-0.02510468,-0.00219059,0.031543627,-0.0033025742,-0.0011846167,-0.00022691785,-0.00095315685,-0.00029164762,0.0,0.0027494535,0.024597168
0.0006994661,0.0012643647,0.00041701412,0.0034560151,0.0042181034,-0.012343872,0.0,0.0,0.0,0.13406494,-0.02487805,0.99066025,0.99097264,0.003365658,-0.13402271,-2.3283062e-10,-0.9996849,-0.02510468,-0.020147085,0.009995803,0.0074710846,-0.0012794291,-0.00017580425,-0.0009110357,-0.00029164762,0.0,0.0027494535,0.02456665
-0.0012990031,0.001397596,-0.0031802296,0.0035892464,0.0034187157,-0.014075879,0.0,0.0,0.0,0.13406494,-0.02487805,0.99066025,0.99097264,0.003365658,-0.13402271,-2.3283062e-10,-0.9996849,-0.02510468,-0.005781889,0.04112044,-0.012879372,-0.0013019413,3.0676965e-05,-0.0009708774,-0.00029164762,0.0,0.0027494535,0.02468872
-0.0011657719,-0.00020117895,-0.00064883614,0.0003916975,0.004484566,-0.015674654,0.0,0.0,0.0,0.13406494,-0.02487805,0.99066025,0.99097264,0.003365658,-0.13402271,-2.3283062e-10,-0.9996849,-0.02510468,0.092380285,0.07104795,-0.021260262,-0.0008335302,0.0003857633,-0.0010723243,-0.00029164762,0.0,0.0027494535,0.02545166
0.00029977225,0.00046497723,-0.00078206696,0.0027898587,0.0042181034,-0.013809416,0.0,0.0,0.0,0.13406494,-0.02487805,0.99066025,0.99097264,0.003365658,-0.13402271,-2.3283062e-10,-0.9996849,-0.02510468,0.012174606,-0.024720117,-0.040413857,-0.0007684895,0.00026023388,-0.001269032,-0.00029164762,0.0,0.0027494535,0.02468872
0.00029977225,0.00019851467,-0.0035799232,0.0013243165,0.0071491897,-0.015408192,0.0,0.0,0.0,0.13406494,-0.02487805,0.99066025,0.99097264,0.003365658,-0.13402271,-2.3283062e-10,-0.9996849,-0.02510468,0.008583307,-0.034296915,-0.038018227,-0.0007217305,8.7448134e-05,-0.001452778,-0.00029164762,0.0,0.0027494535,0.02456665
0.00016654097,-0.0010005664,-0.00064883614,0.0063871033,0.0064830333,-0.014608804,0.0,0.0,0.0,0.13406494,-0.02487805,0.99066025,0.99097264,0.003365658,-0.13402271,-2.3283062e-10,-0.9996849,-0.02510468,0.0397079,0.036332026,0.14393997,-0.0005195824,0.00026867102,-0.0007258143,-0.00029164762,0.0,0.006289969,0.024597168
0.002031777,-0.0025993413,-0.00078206696,0.0014575478,0.003152253,-0.015274961,0.0,0.0,0.0,0.13406494,-0.02487805,0.99066025,0.99097264,0.003365658,-0.13402271,-2.3283062e-10,-0.9996849,-0.02510468,0.0349195,0.019572616,-0.040413857,-0.000342387,0.00036519076,-0.00092425453,-0.00029164762,0.0,0.006289969,0.024627686
-9.99216e-05,-0.001267029,0.00015055155,0.0065203346,0.0064830333,-0.013542954,0.0,0.0,0.0,0.13406494,-0.02487805,0.99066025,0.99097264,0.003365658,-0.13402271,-2.3283062e-10,-0.9996849,-0.02510468,-0.0009934902,0.008798704,0.03141308,-0.0003456425,0.00040735834,-0.00076256786,-0.00029164762,0.0,0.006289969,0.024780273
0.0025647022,-0.0031322662,0.0005502454,-7.996336e-06,0.0071491897,-0.012477104,0.0,0.0,0.0,0.13406494,-0.02487805,0.99066025,0.99097264,0.003365658,-0.13402271,-2.3283062e-10,-0.9996849,-0.02510468,-0.0321182,0.0016161054,-0.01647091,-0.0005045053,0.00041340207,-0.00084110955,-0.00029164762,0.0,0.006289969,0.024597168
0.0005662348,0.0007314398,0.0014828639,0.004255403,0.007682115,-0.014742035,0.0,0.0,0.0,0.13406494,-0.02487805,0.99066025,0.99097264,0.003365658,-0.13402271,-2.3283062e-10,-0.9996849,-0.02510468,0.008583307,-0.030705616,-0.015274048,-0.0004590662,0.00025780697,-0.00091327424,-0.00029164762,0.0,0.006289969,0.024597168
-0.0020983908,0.00046497723,0.0013496326,0.0018572416,0.0034187157,-0.015008498,0.0,0.0,0.0,0.13406494,-0.02487805,0.99066025,0.99097264,0.003365658,-0.13402271,-2.3283062e-10,-0.9996849,-0.02510468,-0.029724002,-0.045070812,0.07211399,-0.0006053909,3.1163872e-05,-0.00054813793,-0.00029164762,0.0,0.006289969,0.024597168
3.3309683e-05,0.0021969832,0.0021490199,-0.0013403092,0.005017489,-0.017140197,0.0,0.0,0.0,0.13406494,-0.02487805,0.99066025,0.99097264,0.003365658,-0.13402271,-2.3283062e-10,-0.9996849,-0.02510468,-0.017752886,-0.0031722933,-0.027245522,-0.0006911283,1.5146588e-05,-0.00068162486,-0.00029164762,0.0,0.006289969,0.024627686
0.0028311647,0.0005982085,-0.0018479172,0.0037224777,0.005816877,-0.014342342,0.0,0.0,0.0,0.13406494,-0.02487805,0.99066025,0.99097264,0.003365658,-0.13402271,-2.3283062e-10,-0.9996849,-0.02510468,-0.014161587,-0.01634042,-0.038018227,-0.00075848063,-6.663124e-05,-0.0008683079,-0.00029164762,0.0,0.006289969,0.024658203
