GyroX,GyroY,GyroZ,ExpGravityX,ExpGravityY,ExpGravityZ,ExpOxX,ExpOxY,ExpOxZ,ExpOyX,ExpOyY,ExpOyZ,AccX,AccY,AccZ,AccNoiseX,AccNoiseY,AccNoiseZ,ExpSpeedX,ExpSpeedY,ExpSpeedZ,dT
0.0,0.0,0.0,0.10018468,-0.0058975965,0.99495137,0.9949689,0.0005938365,-0.10018292,0.0,-0.9999825,-0.005927419,0.005698298835754345,0.0425210122525692,0.04927365264892458,2.8491494178771725e-05,0.000212605061262846,0.0002463682632446229,0.0,0.0,0.0,0.0051727295
0.0,0.0,0.0,0.10018468,-0.0058975965,0.99495137,0.9949689,0.0005938365,-0.10018292,0.0,-0.9999825,-0.005927419,-0.035003129386901866,-0.036487642532587045,-0.008187187194824475,-0.00014666661022663148,2.9103823293596514e-05,0.00020420048595427742,0.0,0.0,0.0,0.020347595
0.0,0.0,0.0,0.10018468,-0.0058975965,0.99495137,0.9949689,0.0005938365,-0.10018292,0.0,-0.9999825,-0.005927419,-0.001484306144714398,0.023367398971319203,-0.008187187194824475,-0.0001533548078990703,0.00014579529903372456,0.00016224354755038365,0.0,0.0,0.0,0.017326355
0.0,0.0,0.0,0.10018468,-0.0058975965,0.99495137,0.9949689,0.0005938365,-0.10018292,0.0,-0.9999825,-0.005927419,-0.03979153270721436,-0.012545625931024554,-0.020158195495605824,-0.00035154569739564675,8.233819288343317e-05,6.0641352334602606e-05,0.0,0.0,0.0,0.017333984
0.0,0.0,0.0,0.10018468,-0.0058975965,0.99495137,0.9949689,0.0005938365,-0.10018292,0.0,-0.9999825,-0.005927419,-0.03021472606658937,-0.04606444917321205,0.0061780227661127896,-0.0005008615992416153,-0.00014839574394704425,9.122825940349353e-05,0.0,0.0,0.0,0.017250061
0.0,0.0,0.0,0.10018468,-0.0058975965,0.99495137,0.9949689,0.0005938365,-0.10018292,0.0,-0.9999825,-0.005927419,0.024851912117004327,0.02576160063147545,-0.05367701873779396,-0.00037409773066038565,-1.8845762069931763e-05,-0.0001776129755824937,0.0,0.0,0.0,0.017234802
0.0,0.0,0.0,0.10018468,-0.0058975965,0.99495137,0.9949689,0.0005938365,-0.10018292,0.0,-0.9999825,-0.005927419,0.0033040971755980975,0.016184793990850453,-0.02255239715576174,-0.00035570675612909327,6.217243669467016e-05,-0.00028948689648338995,0.0,0.0,0.0,0.01737976
0.0,0.0,0.0,0.10018468,-0.0058975965,0.99495137,0.9949689,0.0005938365,-0.10018292,0.0,-0.9999825,-0.005927419,0.005698298835754345,-0.036487642532587045,0.04927365264892458,-0.00032543672816967605,-0.00012057663815173844,-4.16711987563501e-05,0.0,0.0,0.0,0.016845703
0.0,0.0,0.0,0.10018468,-0.0058975965,0.99495137,0.9949689,0.0005938365,-0.10018292,0.0,-0.9999825,-0.005927419,-0.0038785078048706456,-0.03169923921227455,0.0061780227661127896,-0.0003432020835531809,-0.0002784699510223525,-1.0572728932004397e-05,0.0,0.0,0.0,0.016860962
0.0,0.0,0.0,0.10018468,-0.0058975965,0.99495137,0.9949689,0.0005938365,-0.10018292,0.0,-0.9999825,-0.005927419,0.07034174365997314,0.0281558022916317,0.0325142410278314,1.0222645164450724e-05,-0.00013629858980908222,0.00015205133985181265,0.0,0.0,0.0,0.016868591
0.0,0.0,0.0,0.10018468,-0.0058975965,0.99495137,0.9949689,0.0005938365,-0.10018292,0.0,-0.9999825,-0.005927419,-0.006272709465026893,-0.02691083589196204,-0.06804222869873122,-2.1192015386505997e-05,-0.00027017127631984703,-0.00018892006034110253,0.0,0.0,0.0,0.016868591
0.0,0.0,0.0,0.10018468,-0.0058975965,0.99495137,0.9949689,0.0005938365,-0.10018292,0.0,-0.9999825,-0.005927419,-0.03260892772674562,-0.005363020950555797,-0.01297559051513808,-0.00018413069394330154,-0.00029563552469102683,-0.00025285341261508743,0.0,0.0,0.0,0.017326355
0.0,0.0,0.0,0.10018468,-0.0058975965,0.99495137,0.9949689,0.0005938365,-0.10018292,0.0,-0.9999825,-0.005927419,0.03921712207794181,0.0808282388150692,-0.020158195495605824,1.2875569916124033e-05,0.00010998384700777432,-0.00035238012303004114,0.0,0.0,0.0,0.016899109
0.0,0.0,0.0,0.10018468,-0.0058975965,0.99495137,0.9949689,0.0005938365,-0.10018292,0.0,-0.9999825,-0.005927419,-0.05415674266815196,-0.002968819290399549,0.04209104766845684,-0.00025797252127421637,9.45898313207377e-05,-0.00014016298407260676,0.0,0.0,0.0,0.016990662
0.0,0.0,0.0,0.10018468,-0.0058975965,0.99495137,0.9949689,0.0005938365,-0.10018292,0.0,-0.9999825,-0.005927419,-0.03260892772674562,-0.0293050375521183,0.025331636047361883,-0.0004197272973015734,-5.240830559645751e-05,-1.2803988915434302e-05,0.0,0.0,0.0,0.016937256
0.0,0.0,0.0,0.10018468,-0.0058975965,0.99495137,0.9949689,0.0005938365,-0.10018292,0.0,-0.9999825,-0.005927419,-0.03260892772674562,-0.022122432571649545,-0.01776399383544991,-0.0005806732994487935,-0.00016275842692672294,-0.00010155993814810668,0.0,0.0,0.0,0.016860962
0.0,0.0,0.0,0.10018468,-0.0058975965,0.99495137,0.9949689,0.0005938365,-0.10018292,0.0,-0.9999825,-0.005927419,0.07991855030059813,0.03533840727210045,0.07321566925048728,-0.00017817718144855888,1.4747401568412921e-05,0.0002650262077950703,0.0,0.0,0.0,0.016845703
0.0,0.0,0.0,0.10018468,-0.0058975965,0.99495137,0.9949689,0.0005938365,-0.10018292,0.0,-0.9999825,-0.005927419,0.048793928718566804,0.0066079873502254485,0.03012003936767549,6.668334805151794e-05,4.77136013116981e-05,0.0004143012735944724,0.0,0.0,0.0,0.016860962
0.0,0.0,0.0,0.10018468,-0.0058975965,0.99495137,0.9949689,0.0005938365,-0.10018292,0.0,-0.9999825,-0.005927419,-0.0038785078048706456,-0.02691083589196204,0.010966426086424619,4.6957392286907125e-05,-8.70791461546706e-05,0.0004670618976586231,0.0,0.0,0.0,0.016937256
0.0,0.0,0.0,0.10018468,-0.0058975965,0.99495137,0.9949689,0.0005938365,-0.10018292,0.0,-0.9999825,-0.005927419,0.03442871875762932,-0.019728230911493297,0.010966426086424619,0.0002188661991136192,-0.00018528490498136374,0.0005195587186024531,0.0,0.0,0.0,0.016845703
0.0,0.0,0.0,0.10018468,-0.0058975965,0.99495137,0.9949689,0.0005938365,-0.10018292,0.0,-0.9999825,-0.005927419,-0.001484306144714398,0.0329442056119442,-0.04649441375732444,0.0002103503373944791,-1.9637452396735906e-05,0.0002844888562228186,0.0,0.0,0.0,0.016830444
0.0,0.0,0.0,0.10018468,-0.0058975965,0.99495137,0.9949689,0.0005938365,-0.10018292,0.0,-0.9999825,-0.005927419,-0.027820524406433123,-0.0077572226107120446,0.015754829406738224,7.019596367534108e-05,-5.832537818831245e-05,0.0003618405589753957,0.0,0.0,0.0,0.016815186
0.0,0.0,0.0,0.10018468,-0.0058975965,0.99495137,0.9949689,0.0005938365,-0.10018292,0.0,-0.9999825,-0.005927419,0.0009098955154418498,0.004213785690069201,0.08279247589111272,7.439446143417362e-05,-3.696482284702488e-05,0.0007739937356360823,0.0,0.0,0.0,0.016860962
0.0,0.0,0.0,0.10018468,-0.0058975965,0.99495137,0.9949689,0.0005938365,-0.10018292,0.0,-0.9999825,-0.005927419,-0.03979153270721436,-0.010151424270868292,0.06124466094970593,-0.00012493517440906906,-8.753712008713121e-05,0.0010763470717064317,0.0,0.0,0.0,0.016921997
0.0,0.0,0.0,0.10018468,-0.0058975965,0.99495137,0.9949689,0.0005938365,-0.10018292,0.0,-0.9999825,-0.005927419,0.03442871875762932,0.0329442056119442,0.04687945098876867,4.783309525112288e-05,7.762159357302547e-05,0.0013053625912917428,0.0,0.0,0.0,0.016845703
0.0,0.0,0.0,0.10018468,-0.0058975965,0.99495137,0.9949689,0.0005938365,-0.10018292,0.0,-0.9999825,-0.005927419,0.04161132373809817,0.009002189010381703,-0.04410021209716852,0.0002556505484653581,0.00012224443065706885,0.0010783347178494416,0.0,0.0,0.0,0.016815186
0.0,0.0,0.0,0.10018468,-0.0058975965,0.99495137,0.9949689,0.0005938365,-0.10018292,0.0,-0.9999825,-0.005927419,-0.09485817089080817,0.023367398971319203,-0.02973500213623126,-0.00021991855873100958,0.00023847020336037952,0.000924268033579038,0.0,0.0,0.0,0.016830444
0.0,0.0,0.0,0.10018468,-0.0058975965,0.99495137,0.9949689,0.0005938365,-0.10018292,0.0,-0.9999825,-0.005927419,-0.023032121086120627,0.01139639067053795,-0.01776399383544991,-0.0003339795713679577,0.00029425980569626736,0.0008308267242338932,0.0,0.0,0.0,0.016845703
0.0,0.0,0.0,0.10018468,-0.0058975965,0.99495137,0.9949689,0.0005938365,-0.10018292,0.0,-0.9999825,-0.005927419,-0.04936833934783946,0.044915213912725446,0.07800407257080089,-0.0005791513702503152,0.0005173645762314133,0.0012166929534667282,0.0,0.0,0.0,0.016830444
0.0,0.0,0.0,0.10018468,-0.0058975965,0.99495137,0.9949689,0.0005938365,-0.10018292,0.0,-0.9999825,-0.005927419,0.10146636524200425,0.0066079873502254485,0.025331636047361883,-6.892378718904239e-05,0.0005478176901013834,0.001337267668936204,0.0017030792,0.0,0.0,0.016784668
0.0,0.0,0.0,0.10018468,-0.0058975965,0.99495137,0.9949689,0.0005938365,-0.10018292,0.0,-0.9999825,-0.005927419,-0.046974137687683104,0.04012681059241295,-0.027340800476075344,-0.00030344985669151267,0.0007457126546129413,0.0011938773282111463,0.0017030792,0.0,0.0,0.016815186
0.0,0.0,0.0,0.10018468,-0.0058975965,0.99495137,0.9949689,0.0005938365,-0.10018292,0.0,-0.9999825,-0.005927419,-0.018243717765808132,-0.022122432571649545,-0.01776399383544991,-0.00039315119623709575,0.0006313719284816287,0.001099087972392841,0.0017030792,0.0,0.0,0.016815186
0.0,0.0,0.0,0.10018468,-0.0058975965,0.99495137,0.9949689,0.0005938365,-0.10018292,0.0,-0.9999825,-0.005927419,-0.12358859081268314,0.02097319731116295,0.03490844268798732,-0.001009128394319326,0.0007330810553950354,0.0012681347459708135,-0.00038451495,0.0,0.0,0.01689148
0.0,0.0,0.0,0.10018468,-0.0058975965,0.99495137,0.9949689,0.0005938365,-0.10018292,0.0,-0.9999825,-0.005927419,0.024851912117004327,-0.0293050375521183,0.01336062774658231,-0.0008798231917627078,0.0005828904623574687,0.001328597210973871,-0.00038451495,0.0,0.0,0.016815186
0.0,0.0,0.0,0.10018468,-0.0058975965,0.99495137,0.9949689,0.0005938365,-0.10018292,0.0,-0.9999825,-0.005927419,-0.07091615428924569,-0.0293050375521183,0.02293743438720597,-0.0012300048472501227,0.00043345082228508984,0.0014366413968550315,-0.00038451495,0.0,0.0,0.017318726
0.0,0.0,0.0,0.10018468,-0.0058975965,0.99495137,0.9949689,0.0005938365,-0.10018292,0.0,-0.9999825,-0.005927419,0.027246113777160574,-0.05324705415368079,-0.09437844696044984,-0.0010876242541280692,0.0001650482974052604,0.0009575659550685071,-0.00038451495,0.0,0.0,0.01687622
0.0,0.0,0.0,0.10018468,-0.0058975965,0.99495137,0.9949689,0.0005938365,-0.10018292,0.0,-0.9999825,-0.005927419,-0.046974137687683104,0.016184793990850453,-0.02973500213623126,-0.0013170568212958443,0.00024514702587248637,0.0008041031146120083,-0.00038451495,0.0,0.0,0.016906738
0.0,0.0,0.0,0.10018468,-0.0058975965,0.99495137,0.9949689,0.0005938365,-0.10018292,0.0,-0.9999825,-0.005927419,0.06555334033966065,-0.02691083589196204,-0.008187187194824475,-0.0009827048354910618,0.00010936711128331373,0.0007591466630648258,-0.00038451495,0.0,0.0,0.016815186
0.0,0.0,0.0,0.10018468,-0.0058975965,0.99495137,0.9949689,0.0005938365,-0.10018292,0.0,-0.9999825,-0.005927419,-0.006272709465026893,0.0281558022916317,0.05885045928955002,-0.0010091548586387408,0.00024959928718505566,0.0010496032261972518,-0.00038451495,0.0,0.0,0.016784668
0.0,0.0,0.0,0.10018468,-0.0058975965,0.99495137,0.9949689,0.0005938365,-0.10018292,0.0,-0.9999825,-0.005927419,0.027246113777160574,-0.022122432571649545,0.015754829406738224,-0.0008678785154597442,0.00013773912789088268,0.0011231293570999566,-0.00038451495,0.0,0.0,0.016830444
0.0,0.0,0.0,0.10018468,-0.0058975965,0.99495137,0.9949689,0.0005938365,-0.10018292,0.0,-0.9999825,-0.005927419,-0.001484306144714398,0.016184793990850453,0.09476348419189407,-0.0008709606536060174,0.0002179744022056805,0.0015913311312739271,-0.00038451495,0.0,0.0,0.016799927
0.0,0.0,0.0,0.10018468,-0.0058975965,0.99495137,0.9949689,0.0005938365,-0.10018292,0.0,-0.9999825,-0.005927419,0.0033040971755980975,0.0281558022916317,-0.01776399383544991,-0.0008500853644599968,0.00035766354165281064,0.001494554506440308,-0.00038451495,0.0,0.0,0.016830444
0.0,0.0,0.0,0.10018468,-0.0058975965,0.99495137,0.9949689,0.0005938365,-0.10018292,0.0,-0.9999825,-0.005927419,-0.05415674266815196,0.04970361723303795,0.027725837707519574,-0.0011166186509784567,0.0006043933101097363,0.0016257109224457043,-0.00038451495,0.0,0.0,0.016860962
0.0,0.0,0.0,0.10018468,-0.0058975965,0.99495137,0.9949689,0.0005938365,-0.10018292,0.0,-0.9999825,-0.005927419,0.036822920417785676,-0.04127604585289954,0.02293743438720597,-0.000926920955634636,0.00039499111429468995,0.0017322695397695056,-0.00038451495,0.0,0.0,0.016799927
0.0,0.0,0.0,0.10018468,-0.0058975965,0.99495137,0.9949689,0.0005938365,-0.10018292,0.0,-0.9999825,-0.005927419,-0.05176254100799571,-0.012545625931024554,0.0061780227661127896,-0.0011810990558964415,0.0003302880290680937,0.001754498305901222,-0.00038451495,0.0,0.0,0.016784668
0.0,0.0,0.0,0.10018468,-0.0058975965,0.99495137,0.9949689,0.0005938365,-0.10018292,0.0,-0.9999825,-0.005927419,0.07513014698028564,-0.019728230911493297,0.010966426086424619,-0.000799542825715531,0.00022999543436528678,0.001800557944803839,-0.00038451495,0.0,0.0,0.016830444
0.0,0.0,0.0,0.10018468,-0.0058975965,0.99495137,0.9949689,0.0005938365,-0.10018292,0.0,-0.9999825,-0.005927419,-0.06373354930877695,0.0066079873502254485,0.01814903106689414,-0.0011142128581308381,0.00026188539394458757,0.0018823003104142906,-0.00038451495,0.0,0.0,0.01687622
0.0,0.0,0.0,0.10018468,-0.0058975965,0.99495137,0.9949689,0.0005938365,-0.10018292,0.0,-0.9999825,-0.005927419,0.027246113777160574,-0.0077572226107120446,0.03012003936767549,-0.0009724112249543811,0.0002217898539213044,0.0020234890057005965,-0.00038451495,0.0,0.0,0.016815186
0.0,0.0,0.0,0.10018468,-0.0058975965,0.99495137,0.9949689,0.0005938365,-0.10018292,0.0,-0.9999825,-0.005927419,-0.07091615428924569,-0.0005746176302433015,0.020543232727050054,-0.0013221299402758377,0.00021780781650048139,0.002116087724307344,-0.00038451495,0.0,0.0,0.016830444
0.0,0.0,0.0,0.10018468,-0.0058975965,0.99495137,0.9949689,0.0005938365,-0.10018292,0.0,-0.9999825,-0.005927419,0.03203451709747307,0.0066079873502254485,0.0013896194458009603,-0.0011553467050870931,0.0002497587141691062,0.0021124553829148123,-0.00038451495,0.0,0.0,0.016799927
0.0,0.0,0.0,0.10018468,-0.0058975965,0.99495137,0.9949689,0.0005938365,-0.10018292,0.0,-0.9999825,-0.005927419,-0.006272709465026893,-0.0819774740755558,0.025331636047361883,-0.001180933518886792,-0.00016137744977951835,0.0022285512862370476,-0.00038451495,0.0,0.0,0.016845703
0.0,0.0,0.0,0.10018468,-0.0058975965,0.99495137,0.9949689,0.0005938365,-0.10018292,0.0,-0.9999825,-0.005927419,0.07513014698028564,0.004213785690069201,-0.032129203796387173,-0.0007993781163909298,-0.00013950163408027477,0.0020567625108239267,-0.00038451495,0.0,0.0,0.016830444
0.0,0.0,0.0,0.10018468,-0.0058975965,0.99495137,0.9949689,0.0005938365,-0.10018292,0.0,-0.9999825,-0.005927419,-0.07570455760955819,0.03533840727210045,0.01814903106689414,-0.001173904013856766,3.7887910450628854e-05,0.0021372238536042777,-0.00038451495,0.0,0.0,0.016799927
0.0,0.0,0.0,0.10018468,-0.0058975965,0.99495137,0.9949689,0.0005938365,-0.10018292,0.0,-0.9999825,-0.005927419,0.03442871875762932,0.059280423873662946,0.08997508087158224,-0.0009958908999993356,0.00033410059026669044,0.0025764131386941673,-0.00038451495,0.0,0.0,0.016784668
0.0,0.0,0.0,0.10018468,-0.0058975965,0.99495137,0.9949689,0.0005938365,-0.10018292,0.0,-0.9999825,-0.005927419,-0.09964657421112066,0.009002189010381703,0.0803982742309568,-0.0014891443165549424,0.0003774410323672655,0.0029655224441554806,-0.00038451495,0.0,0.0,0.016845703
0.0,0.0,0.0,0.10018468,-0.0058975965,0.99495137,0.9949689,0.0005938365,-0.10018292,0.0,-0.9999825,-0.005927419,0.008092500495910593,0.06885723051428795,0.01336062774658231,-0.0014412360924926147,0.0007198399797768689,0.003017497970667615,-0.00038451495,0.0,0.0,0.01689148
0.0,0.0,0.0,0.10018468,-0.0058975965,0.99495137,0.9949689,0.0005938365,-0.10018292,0.0,-0.9999825,-0.005927419,-0.015849516105651884,-0.01733402925133705,0.02293743438720597,-0.001513277492558411,0.0006295706336212994,0.0031170976527503066,-0.00038451495,0.0,0.0,0.016784668
0.0,0.0,0.0,0.10018468,-0.0058975965,0.99495137,0.9949689,0.0005938365,-0.10018292,0.0,-0.9999825,-0.005927419,-0.011061112785339389,0.016184793990850453,0.1043402908325195,-0.001561016669022316,0.0007073467504074451,0.0036232136186491524,-0.00038451495,0.0,0.0017545014,0.016815186
0.0,0.0,0.0,0.10018468,-0.0058975965,0.99495137,0.9949689,0.0005938365,-0.10018292,0.0,-0.9999825,-0.005927419,-0.14034800243377688,0.03533840727210045,0.03490844268798732,-0.0022549515978460884,0.0008805020530159102,0.003779639763995843,-0.002808739,0.0,0.0017545014,0.01727295
0.0,0.0,0.0,0.10018468,-0.0058975965,0.99495137,0.9949689,0.0005938365,-0.10018292,0.0,-0.9999825,-0.005927419,0.02245771045684808,0.06406882719397544,0.03012003936767549,-0.0021313882875726177,0.0011964436787207078,0.003911341762014241,-0.002808739,0.0,0.0017545014,0.016845703
0.0,0.0,0.0,0.10018468,-0.0058975965,0.99495137,0.9949689,0.0005938365,-0.10018292,0.0,-0.9999825,-0.005927419,-0.03739733104705811,0.0066079873502254485,0.02293743438720597,-0.0023077180013700454,0.0012235013970782315,0.0040064722251401995,-0.002808739,0.0,0.0017545014,0.016845703
0.0,0.0,0.0,0.10018468,-0.0058975965,0.99495137,0.9949689,0.0005938365,-0.10018292,0.0,-0.9999825,-0.005927419,0.08470695362091063,0.004213785690069201,-0.008187187194824475,-0.0018726446432586418,0.0012384528185431865,0.003945503928040376,-0.002808739,0.0,0.0017545014,0.01675415
0.0,0.0,0.0,0.10018468,-0.0058975965,0.99495137,0.9949689,0.0005938365,-0.10018292,0.0,-0.9999825,-0.005927419,-0.006272709465026893,-0.0340934408724308,0.04687945098876867,-0.001894644967367483,0.0010617933500883165,0.004160173663344017,-0.002808739,0.0,0.0017545014,0.016799927
0.0,0.0,0.0,0.10018468,-0.0058975965,0.99495137,0.9949689,0.0005938365,-0.10018292,0.0,-0.9999825,-0.005927419,0.1086489702224731,0.04970361723303795,0.003783821105956875,-0.0013419268914182801,0.0013050024695030649,0.004158291900557082,-0.0009801285,0.0,0.0017545014,0.016830444
0.0,0.0,0.0,0.10018468,-0.0058975965,0.99495137,0.9949689,0.0005938365,-0.10018292,0.0,-0.9999825,-0.005927419,-0.04218573436737061,0.0018195840299129531,0.05885045928955002,-0.0015461459287980418,0.0013075753773051143,0.004431752737502046,-0.0009801285,0.0,0.0017545014,0.016967773
0.0,0.0,0.0,0.10018468,-0.0058975965,0.99495137,0.9949689,0.0005938365,-0.10018292,0.0,-0.9999825,-0.005927419,0.0535823320388793,0.0066079873502254485,0.0061780227661127896,-0.001270503538959655,0.001334077437169716,0.0044404840876451,-0.0009801285,0.0,0.0017545014,0.016830444
0.0,0.0,0.0,0.10018468,-0.0058975965,0.99495137,0.9949689,0.0005938365,-0.10018292,0.0,-0.9999825,-0.005927419,-0.03739733104705811,0.0377326089322567,-0.020158195495605824,-0.0014511376765001473,0.0015160700946451509,0.0043174906897288454,-0.0009801285,0.0,0.0017545014,0.016860962
0.0,0.0,0.0,0.10018468,-0.0058975965,0.99495137,0.9949689,0.0005938365,-0.10018292,0.0,-0.9999825,-0.005927419,0.06315913867950429,-0.01733402925133705,0.05166785430908227,-0.001128086294720125,0.0014218195979152398,0.004554242507825613,-0.0009801285,0.0,0.0017545014,0.016784668
0.0,0.0,0.0,0.10018468,-0.0058975965,0.99495137,0.9949689,0.0005938365,-0.10018292,0.0,-0.9999825,-0.005927419,-0.08767556591033943,-0.012545625931024554,-0.008187187194824475,-0.0015608236927982214,0.0013519823702705408,0.004490535359312362,-0.0009801285,0.0,0.0017545014,0.016830444
0.0,0.0,0.0,0.10018468,-0.0058975965,0.99495137,0.9949689,0.0005938365,-0.10018292,0.0,-0.9999825,-0.005927419,0.048793928718566804,0.0185789956510067,-0.01058138885498039,-0.0013090499307413961,0.0014381174366742216,0.0044151757382408984,-0.0009801285,0.0,0.0017545014,0.016860962
0.0,0.0,0.0,0.10018468,-0.0058975965,0.99495137,0.9949689,0.0005938365,-0.10018292,0.0,-0.9999825,-0.005927419,-0.056550944328308206,-0.06521806245446204,0.04927365264892458,-0.0015852594027292303,0.0011048365372185402,0.004639468122794316,-0.0009801285,0.0,0.0017545014,0.016784668
0.0,0.0,0.0,0.10018468,-0.0058975965,0.99495137,0.9949689,0.0005938365,-0.10018292,0.0,-0.9999825,-0.005927419,-0.05415674266815196,-0.024516634231805792,0.008572224426268704,-0.001848116819056344,0.0009767291833734186,0.0046591319043116875,-0.0009801285,0.0,0.0017545014,0.01676941
0.0,0.0,0.0,0.10018468,-0.0058975965,0.99495137,0.9949689,0.0005938365,-0.10018292,0.0,-0.9999825,-0.005927419,0.04639972705841067,-0.0819774740755558,0.04448524932861275,-0.001606877599669009,0.0005619581670787725,0.004858262491433193,-0.0009801285,0.0,0.0017545014,0.016784668
0.0,0.0,0.0,0.10018468,-0.0058975965,0.99495137,0.9949689,0.0005938365,-0.10018292,0.0,-0.9999825,-0.005927419,-0.03739733104705811,0.004213785690069201,0.08518667755126863,-0.0017858298669059544,0.0005802173046937245,0.00525990456673237,-0.0009801285,0.0,0.0017545014,0.016845703
0.0,0.0,0.0,0.10018468,-0.0058975965,0.99495137,0.9949689,0.0005938365,-0.10018292,0.0,-0.9999825,-0.005927419,-0.023032121086120627,-0.050852852493524545,0.010966426086424619,-0.001892061323002028,0.0003230519557026331,0.005288437174330831,-0.0009801285,0.0,0.0017545014,0.016845703
0.0,0.0,0.0,0.10018468,-0.0058975965,0.99495137,0.9949689,0.0005938365,-0.10018292,0.0,-0.9999825,-0.005927419,0.03921712207794181,0.02097319731116295,0.08279247589111272,-0.0016865154059973087,0.0004263026824799347,0.005675957367914741,-0.0009801285,0.0,0.0017545014,0.016784668
0.0,0.0,0.0,0.10018468,-0.0058975965,0.99495137,0.9949689,0.0005938365,-0.10018292,0.0,-0.9999825,-0.005927419,-0.008666911125183141,-0.0077572226107120446,-0.08001323699951257,-0.0017214173845932377,0.0003853850560139748,0.005247511396077605,-0.0009801285,0.0,0.0017545014,0.01676941
0.0,0.0,0.0,0.10018468,-0.0058975965,0.99495137,0.9949689,0.0005938365,-0.10018292,0.0,-0.9999825,-0.005927419,-0.11880018749237065,-0.010151424270868292,0.02293743438720597,-0.002306811235132125,0.00033270100937956345,0.0053359610110332465,-0.002968712,0.0,0.0017545014,0.016738892
0.0,0.0,0.0,0.10018468,-0.0058975965,0.99495137,0.9949689,0.0005938365,-0.10018292,0.0,-0.9999825,-0.005927419,0.03442871875762932,0.0329442056119442,0.08518667755126863,-0.0021231335851683176,0.0004957585323923867,0.005735214593734423,-0.002968712,0.0,0.0017545014,0.016815186
0.0,0.0,0.0,0.10018468,-0.0058975965,0.99495137,0.9949689,0.0005938365,-0.10018292,0.0,-0.9999825,-0.005927419,-0.08288716259002693,-0.022122432571649545,-0.0033987838745126453,-0.0025269537301926106,0.000382667576872177,0.005689544601393188,-0.002968712,0.0,0.0017545014,0.016845703
0.0,0.0,0.0,0.10018468,-0.0058975965,0.99495137,0.9949689,0.0005938365,-0.10018292,0.0,-0.9999825,-0.005927419,0.03442871875762932,0.004213785690069201,0.0013896194458009603,-0.0023421753677535006,0.0004018231674381621,0.005668044975615227,-0.002968712,0.0,0.0017545014,0.01675415
0.0,0.0,0.0,0.10018468,-0.0058975965,0.99495137,0.9949689,0.0005938365,-0.10018292,0.0,-0.9999825,-0.005927419,0.017669307136535584,0.016184793990850453,0.04448524932861275,-0.002242117955232055,0.00048073802155522357,0.005862130997380215,-0.002968712,0.0,0.0017545014,0.017364502
0.0,0.0,0.0,0.10018468,-0.0058975965,0.99495137,0.9949689,0.0005938365,-0.10018292,0.0,-0.9999825,-0.005927419,0.02245771045684808,0.016184793990850453,0.0756098709106432,-0.002118618813171654,0.0005592583014016997,0.00621086969694653,-0.002968712,0.0,0.0017545014,0.016906738
0.0,0.0,0.0,0.10018468,-0.0058975965,0.99495137,0.9949689,0.0005938365,-0.10018292,0.0,-0.9999825,-0.005927419,0.024851912117004327,0.0185789956510067,-0.0033987838745126453,-0.0019837661585207743,0.0006493569881497246,0.006162821429089234,-0.002968712,0.0,0.0017545014,0.01687622
0.0,0.0,0.0,0.10018468,-0.0058975965,0.99495137,0.9949689,0.0005938365,-0.10018292,0.0,-0.9999825,-0.005927419,-0.06852195262908944,-0.019728230911493297,-0.11353206024169893,-0.0023164570908736177,0.0005474690486515096,0.0055643470207352936,-0.002968712,0.0,-0.00015456129,0.016815186
0.0,0.0,0.0,0.10018468,-0.0058975965,0.99495137,0.9949689,0.0005938365,-0.10018292,0.0,-0.9999825,-0.005927419,0.012880903816223088,-0.010151424270868292,-0.039311808776856694,-0.0022404702863381342,0.0004939745820539106,0.005339966241747334,-0.002968712,0.0,-0.00015456129,0.01676941
0.0,0.0,0.0,0.10018468,-0.0058975965,0.99495137,0.9949689,0.0005938365,-0.10018292,0.0,-0.9999825,-0.005927419,-0.03979153270721436,0.06885723051428795,0.03490844268798732,-0.002428225598442515,0.0008357908617150809,0.005487808623978533,-0.002968712,0.0,-0.00015456129,0.016799927
0.0,0.0,0.0,0.10018468,-0.0058975965,0.99495137,0.9949689,0.0005938365,-0.10018292,0.0,-0.9999825,-0.005927419,-0.08288716259002693,-0.1490151205599308,-0.04170601043701261,-0.0028305202834004372,8.653630460685147e-05,0.0052518395286735775,-0.002968712,-0.0025057169,-0.00015456129,0.016815186
0.0,0.0,-0.20140433,0.10020462,-0.0055589215,0.99495137,0.99496126,0.003957311,-0.10018236,0.0033804262,-0.99997675,-0.005927385,-0.020830263614654565,-0.7221018599927425,0.010966426086424619,-0.002920519000056708,-0.003524405676879895,0.005280412461462333,-0.002968712,-0.014625957,-0.00015456129,0.016784668
0.0,0.0,-0.18861414,0.100222185,-0.005242268,0.99495137,0.99494386,0.007101423,-0.10018187,0.0065403897,-0.9999611,-0.005927355,0.09152775840759264,0.6706633758902549,-0.0033987838745126453,-0.002448277613018461,-0.00015346676904422077,0.005237016479782457,-0.002968712,-0.0033895622,-0.00015456129,0.01675415
0.0,0.0,-0.055782594,0.10022712,-0.005147919,0.99495137,0.9949367,0.008038059,-0.100181825,0.0074817487,-0.99995446,-0.0059273522,0.1321816221237182,0.06880870057344436,0.02293743438720597,-0.0017751281143347777,0.00019134406766822213,0.005325518569319575,-0.00073798577,-0.0033895622,-0.00015456129,0.01687622
0.0,0.0,-0.05858045,0.10023218,-0.00504937,0.99495137,0.9949283,0.009016329,-0.10018178,0.008464954,-0.99994665,-0.0059273494,-0.03785551195144654,0.046310318207740786,0.05166785430908227,-0.0019555300335203367,0.00042193893836858494,0.005557230248018389,-0.00073798577,-0.0033895622,-0.00015456129,0.016784668
0.0,0.0,-0.05658198,0.10023698,-0.0049540056,0.99495137,0.99491936,0.009962937,-0.10018174,0.009416335,-0.99993813,-0.0059273466,-0.018748211479187038,-0.13178046077489852,0.03969684600830092,-0.00203949344074867,-0.00023907306019775056,0.0057279283268198014,-0.00073798577,-0.005605475,-0.00015456129,0.016815186
0.0,0.0,-0.07270296,0.100243025,-0.004831798,0.99495137,0.9949065,0.01117592,-0.10018167,0.010635438,-0.9999259,-0.0059273425,-0.03077751312255861,0.1136435389637947,0.0013896194458009603,-0.0021831835391577193,0.0003303399999222117,0.005706236782414708,-0.00073798577,-0.00369974,-0.00015456129,0.01676941
0.0,0.0,0.0,0.100243025,-0.004831798,0.99495137,0.9949065,0.01117592,-0.10018167,0.010635438,-0.9999259,-0.0059273425,0.0793557632446289,0.02984648085832596,0.04687945098876867,-0.0017754888052387862,0.00047792070421423045,0.005912102853446477,-0.00073798577,-0.00369974,-0.00015456129,0.016784668
0.0,0.0,-0.052052118,0.10024726,-0.004743979,0.99495137,0.99489623,0.012047512,-0.100181624,0.01151143,-0.99991626,-0.00592734,-0.13137481203079227,-0.08113387064337729,0.027725837707519574,-0.0024234854213665536,6.986174747627283e-05,0.006021171527716843,-0.0029490823,-0.00369974,-0.00015456129,0.016830444
0.0,0.0,0.0,0.10024726,-0.004743979,0.99495137,0.99489623,0.012047512,-0.100181624,0.01151143,-0.99991626,-0.00592734,-0.253479096698761,0.6179730141222477,0.010966426086424619,-0.003678763477753526,0.00315937750935013,0.006045897800510382,-0.007215248,0.0067010205,-0.00015456129,0.016830444
0.0,0.0,0.0,0.10024726,-0.004743979,0.99495137,0.99489623,0.012047512,-0.100181624,0.01151143,-0.99991626,-0.00592734,-0.04278935060501099,0.33785141988396644,0.09236928253173815,-0.0038743164133898133,0.004832837721223211,0.00647751472416652,-0.007215248,0.012402676,-0.00015456129,0.01687622
0.118908875,0.0,0.0,0.10024726,-0.0027527935,0.99496084,0.99489623,0.01184702,-0.100205734,0.011511407,-0.9999261,-0.0039262106,0.0673439257621764,0.00021629870533943288,0.08509512481689363,-0.0035182252025119823,0.004809755026143792,0.006870602774630156,-0.007215248,0.012402676,-0.00015456129,0.016830444
0.08946477,0.053018037,0.0,0.09936266,-0.0012600822,0.9950541,0.994985,0.01169668,-0.09933893,0.0115148835,-0.9999308,-0.0024158126,0.21713440742492662,-0.2751498715132475,0.4983926971435544,-0.0024149620393747896,0.003409956893446835,0.009328213246474776,-0.0035740323,0.0077885753,0.00820319,0.01676941
0.0558905,0.06687409,-0.0809633,0.09824949,-0.00019353302,0.99516666,0.995079,0.012953309,-0.09823494,0.012873951,-0.99991614,-0.0014665761,0.32124551248550404,0.40409263305068016,0.1980312545776357,-0.0007966596667503955,0.005413370274233002,0.01027172845313058,0.0018081632,0.014558804,0.011521035,0.01675415
0.112913474,0.0,-0.07403527,0.098249726,0.001816438,0.995167,0.9950623,0.014004622,-0.09825945,0.014117597,-0.9999003,0.0004302018,0.10576503849029528,0.0734589150071144,-0.3646089965820316,-0.0002638511759651671,0.005753597997897409,0.008397324827954768,0.0035850082,0.014558804,0.0053956304,0.016799927
0.0725444,0.0,-0.09641813,0.09824676,0.0031984043,0.9951648,0.9950383,0.015507511,-0.09827652,0.015748987,-0.9998746,0.0016576719,-0.24375979366302492,-0.50729685934484,-0.07967801818847775,-0.001481330888400466,0.0031883457111837217,0.007956948112872606,-0.00053989433,0.005974328,0.0053956304,0.016921997
0.0,0.0,-0.17582394,0.09823731,0.0034886084,0.9951648,0.99498826,0.018446608,-0.09827611,0.018702365,-0.9998238,0.0016576648,-0.2771874814033509,-0.09350498154759407,-0.2568489410400403,-0.002859861640975218,0.002704879074889833,0.006632918667108041,-0.0051966235,0.005974328,0.0010805869,0.016799927
0.09292878,0.09405326,-0.24457125,0.09664909,0.00544767,0.9953147,0.99505895,0.02238474,-0.09673047,0.022811307,-0.9997345,0.0032495507,-0.2594738131523133,0.5029083994805813,0.07689352111816383,-0.004142931398531909,0.00520589667691829,0.0069842216793633205,-0.009559724,0.0144308265,0.0010805869,0.016815186
0.17433307,0.13428909,-0.2650889,0.09431338,0.008890389,0.9955227,0.9951692,0.026653158,-0.09448667,0.027385043,-0.99960506,0.0063155205,0.1485220773696898,0.01240857388973235,0.09164735565185467,-0.0033796063546908,0.0052419100629823604,0.007407537349225777,-0.006992043,0.0144308265,0.0010805869,0.017288208
0.17180167,0.115903184,-0.25176576,0.092331946,0.012171551,0.9956811,0.9952312,0.030600091,-0.09261988,0.03161179,-0.9994573,0.009261842,0.12932713975906363,-0.06473022879362106,-0.0032552490234376563,-0.002716072624122028,0.0048920493686993435,0.00735422341736246,-0.0048134364,0.0144308265,0.0010805869,0.016845703
0.11757656,0.10044836,-0.17835534,0.090605885,0.014427182,0.9958136,0.99529094,0.03341429,-0.09099155,0.034606896,-0.99933714,0.011300368,0.0741500977516174,-0.10803510253429413,-0.16733888549804732,-0.002331741772243331,0.004327413609184376,0.006480757872785411,-0.0048134364,0.012605954,-0.0017460145,0.01689148
0.05495788,0.13881895,-0.12279791,0.0882516,0.015534529,0.9960118,0.9954298,0.035385188,-0.08869875,0.036643922,-0.9992526,0.012304632,0.22375144014358517,-0.14744663009643555,0.017497680664062543,-0.0012013258626641884,0.0035685433906562764,0.006535842486741797,-0.0010510144,0.010126611,-0.0017460145,0.016815186
0.0,0.24313901,-0.11480403,0.08415693,0.015704585,0.9963719,0.99571353,0.037302952,-0.08463554,0.03851915,-0.9991803,0.012454156,-0.03842220287323006,-0.24724918818473815,0.24386680450439435,-0.0013874302477170177,0.002314454732779304,0.00772249729683006,-0.0010510144,0.0059766155,0.0023472088,0.016784668
0.066548996,0.28510687,-0.1675636,0.079340324,0.017055454,0.99675745,0.99599904,0.04001072,-0.079906814,0.041272055,-0.9990533,0.013755691,-0.2289887904167176,-0.06874307775497437,0.22817742004394503,-0.002525437048562021,0.0019591670703405354,0.008824771910565635,-0.0048980094,0.0059766155,0.006180573,0.016799927
0.1876562,0.24353871,-0.1615682,0.07520088,0.020425396,0.9970293,0.99620736,0.042470723,-0.07594272,0.04393679,-0.99888825,0.017086081,-0.1842727256774903,0.1405659564971924,0.4458213684082022,-0.0034341734917066624,0.002652201017474795,0.011009754893053818,-0.008005025,0.008346693,0.01369755,0.016860962
0.31169447,0.19970563,-0.09481935,0.07183247,0.025751524,0.99717426,0.9963884,0.043656483,-0.072830886,0.04546576,-0.9987136,0.02244911,0.19537706651687614,0.4076207591056823,0.10684084777832048,-0.002440117291663748,0.004677043807915832,0.011488910357480151,-0.004731648,0.015176032,0.015487578,0.01675415
0.34700075,0.1999721,-0.085892856,0.06845452,0.03165217,0.9972652,0.9965643,0.044666696,-0.06974606,0.046826884,-0.998499,0.028407129,0.1848640176773071,0.09691971249580383,0.23525035705566388,-0.0015035966168188938,0.005138257151355272,0.01260771759097107,-0.0016344086,0.015176032,0.019428998,0.01675415
0.4042902,0.1402845,-0.07496789,0.06606433,0.038511857,0.9972116,0.99667007,0.045447998,-0.0677006,0.048016325,-0.9982227,0.035298474,-0.01953018264770512,0.06666654510498043,0.4464579483032214,-0.0015937295469733248,0.005445898591123398,0.014776968744532323,-0.0016344086,0.015176032,0.026929459,0.016799927
0.39563015,0.0,-0.060312457,0.0660252,0.04522506,0.9969549,0.99662364,0.046009406,-0.06800348,0.049029406,-0.997916,0.041950345,0.06225015001296996,0.14317111926078796,0.2597917556762681,-0.0012745101491736083,0.00613452469447172,0.016002042679191003,-0.0016344086,0.01758785,0.031305835,0.016845703
0.2734571,-0.08261136,-0.07390204,0.0673551,0.049895573,0.996655,0.9964702,0.046935953,-0.069600806,0.050328385,-0.99765086,0.046474475,-0.21633398828506473,-0.17481804399490358,0.30577987976074184,-0.002349807539853064,0.005229761851024844,0.017450931864598757,-0.005275406,0.014645585,0.036452245,0.016830444
0.15075114,-0.15149193,-0.11347172,0.069789864,0.052540883,0.99635804,0.9961993,0.048654333,-0.072248146,0.052342743,-0.9974329,0.048866272,-0.2182711186408997,-0.3559568870544434,0.25357807922363307,-0.003429414095358297,0.0034238286064975027,0.01863156760139393,-0.008932353,0.00868183,0.04070073,0.01675415
0.0,-0.18360065,-0.11507049,0.07275884,0.052675676,0.996143,0.995876,0.050578073,-0.075317614,0.054419678,-0.99732965,0.048704863,-0.13438140745162963,0.006661549568176217,-0.0053156600952153354,-0.004084174062139654,0.003440017211305896,0.018511831462910883,-0.0111879,0.00868183,0.04070073,0.016784668
0.0,-0.19012898,-0.10521139,0.075841956,0.052804045,0.995911,0.9955401,0.052334785,-0.0784923,0.05633448,-0.9972317,0.04853126,-0.049198392391204826,-0.3297648501396179,0.05438249969482278,-0.00430974515378498,0.0017739928745512772,0.018691184804070442,-0.0111879,0.0031518682,0.04070073,0.01676941
0.0,-0.19705701,-0.07563405,0.0790836,0.052900765,0.995659,0.9952063,0.05360402,-0.08179954,0.057767406,-0.99715894,0.048344042,-0.10201402912139901,-0.18465148077011112,-0.09162708740234393,-0.00479826657362305,0.000841865506327965,0.01813959344303837,-0.012907955,3.8466653e-05,0.04070073,0.016860962
-0.12730247,-0.13976757,0.0,0.08141937,0.05077331,0.9955865,0.99501187,0.05377867,-0.0840195,0.057880666,-0.9972596,0.046077743,0.2178267293930054,0.048953154087066575,-0.37823224334716876,-0.0036851415937899077,0.001082421949231658,0.016157734259087335,-0.009251806,3.8466653e-05,0.034352228,0.016784668
-0.21043876,-0.05516573,0.0,0.082338706,0.047266345,0.99569017,0.9949339,0.05407461,-0.08474884,0.057922844,-0.9974155,0.042511165,0.15149832773208616,0.04207873268127438,-0.558796818542481,-0.0029092242471605275,0.0012874035028918715,0.013282961495079492,-0.006715892,3.8466653e-05,0.024998588,0.016738892
-0.22242957,0.0,0.0,0.082338706,0.043559168,0.9958662,0.9949339,0.05439015,-0.08454751,0.05792245,-0.99756694,0.0387973,0.19219975595474237,-0.13045861444473267,-0.40487220458984474,-0.001933679346151013,0.0006286734131537489,0.01119218566465487,-0.003498681,-0.002145266,0.018221477,0.016738892
-0.21363631,0.0,0.0,0.082338706,0.04000116,0.9960218,0.9949338,0.054692212,-0.08435318,0.057922084,-0.99769926,0.035232995,-0.09510444326400758,-0.3786550989627838,-0.2004719451904311,-0.0023995331657402958,-0.001267745448725939,0.01013386501037944,-0.003498681,-0.008477755,0.014868858,0.016723633
-0.16100997,0.0,-0.07057126,0.08229107,0.037392795,0.9961305,0.9948677,0.05610631,-0.08420449,0.05911006,-0.9977216,0.032521863,-0.15689419422149664,0.17322868485450738,-0.14884759674072257,-0.0031720064710190777,-0.0003952632972097724,0.00933895770162393,-0.006146462,-0.0055543096,0.012356874,0.01687622
0.0,0.0,-0.101347685,0.08222734,0.037533034,0.9961305,0.99477065,0.057801664,-0.08420437,0.06081027,-0.99761945,0.032521818,-0.24247081089019784,-0.14655280375480653,0.16000441741943305,-0.004368500493114972,-0.0011260509994977562,0.010092285000212975,-0.010223654,-0.008018622,0.015047378,0.016815186
0.071745016,-0.09953173,-0.11094032,0.08381724,0.038882017,0.99594843,0.99451995,0.059547663,-0.085930854,0.062716894,-0.99746495,0.03361849,0.041468777179717975,0.3073046770095825,0.15457752685546744,-0.004139314104750807,0.0004161026405476453,0.010814711209489247,-0.010223654,-0.0028746824,0.017634835,0.016738892
0.12050765,-0.14070019,-0.07310265,0.08618861,0.041060943,0.9956638,0.9942321,0.060624342,-0.08847146,0.064057924,-0.99731314,0.035542224,-0.014923447704315196,0.13066437530517572,0.06873769378661976,-0.004193234772748629,0.0010673440038707857,0.0111043261223749,-0.010223654,-0.00061772333,0.017634835,0.01727295
0.19058728,-0.1995884,-0.06897248,0.089482546,0.044351768,0.99524295,0.9938583,0.061493497,-0.09200189,0.06533352,-0.9971196,0.038523182,0.06583183403015136,-0.37752394042015075,0.0871626953125002,-0.0038431094287341284,-0.000825612418249322,0.011484617968325526,-0.010223654,-0.0069658584,0.017634835,0.016815186
0.23655206,-0.19652408,-0.08389439,0.09272349,0.04845528,0.9947687,0.99345887,0.06253385,-0.095546134,0.06687387,-0.99686486,0.042290162,0.0944258486747741,-0.1082530164718628,-0.4756883224487307,-0.0033517646382165873,-0.0013627494385173894,0.009048753266240245,-0.010223654,-0.008794412,0.0095997555,0.01689148
0.16687211,-0.08807384,-0.052052118,0.09415171,0.05132253,0.99449587,0.99326146,0.0631341,-0.097189754,0.06780704,-0.99668384,0.04498323,0.035159834003448465,0.1873076822757721,-0.6574106628417979,-0.003159206645008262,-0.0004193972799459419,0.0057164561857000525,-0.010223654,-0.0056505147,-0.0014346641,0.016784668
0.09372817,0.0,0.0,0.09415171,0.052885644,0.9944152,0.99326146,0.06298134,-0.09728899,0.06780696,-0.99661195,0.04654973,-0.07018503904342654,-0.06000714187622075,-0.4315775085449225,-0.003494335807000353,-0.000717336002927316,0.00352998636204694,-0.010223654,-0.0056505147,-0.008671964,0.01676941
0.10718453,0.0,-0.06044569,0.09409816,0.054766748,0.9943203,0.9931973,0.063812494,-0.09740205,0.0688161,-0.99645764,0.048339333,-0.00023665704727182657,-0.05181541194915773,-0.20800122680664046,-0.0034780474132017104,-0.000972826382658468,0.0024723302962035027,-0.010223654,-0.0056505147,-0.012156848,0.01675415
0.0,0.0,-0.058180757,0.09404458,0.054858807,0.9943203,0.9931343,0.064784124,-0.09740199,0.06979093,-0.9963898,0.04833931,0.024222191429138173,-0.06706861190795899,-0.1936360168457032,-0.0033395462189900107,-0.0013033053102849707,0.0014917885604939693,-0.010223654,-0.0056505147,-0.015412874,0.016815186
-0.07574197,0.0,0.0,0.09404458,0.053587828,0.99439037,0.9931344,0.06490864,-0.097319186,0.06979087,-0.9964508,0.047065645,-0.002114026832580662,0.11039072637557978,-0.13924553375244209,-0.0033334186220579636,-0.0007448351518556469,0.000788101948929289,-0.010223654,-0.0037875364,-0.017762812,0.01687622
-0.1628752,0.0,0.0,0.09404458,0.05087677,0.99453646,0.99313426,0.065173954,-0.097142205,0.06979061,-0.9965754,0.044348806,-0.10267049655914307,0.16048270134925835,0.20650417633056506,-0.003830104011743389,6.130253064992304e-05,0.0018166823208374677,-0.011942244,-0.0011012339,-0.014306161,0.016738892
-0.18699005,-0.07674919,0.0,0.09532459,0.047758188,0.99457496,0.99300873,0.06547853,-0.098216,0.06984732,-0.9967092,0.04113379,-0.2419097502708435,-0.13983633246421817,0.505408404541015,-0.005020502243038889,-0.0006381856443244175,0.004334640931938355,-0.015998928,-0.0034462065,-0.00583076,0.01676941
-0.13076648,-0.16414888,0.0,0.09806234,0.04557721,0.9944173,0.9927349,0.065693684,-0.1008055,0.069960356,-0.99679667,0.038755756,0.0022276762962341046,-0.3821615325450897,0.2627209457397459,-0.004984261350342524,-0.0025458023788282437,0.005626572455977393,-0.015998928,-0.00985483,-0.0014250851,0.01676941
-0.058555134,-0.16401565,0.0,0.10080738,0.0445972,0.9941915,0.99245304,0.06579279,-0.103480786,0.07006729,-0.99683416,0.037580255,0.014057089138030943,-0.06864510188102724,-0.09183786315917963,-0.004889054597900657,-0.0028762988763392384,0.005139250277901608,-0.015998928,-0.00985483,-0.0014250851,0.016830444
0.0,-0.07661596,0.0,0.10208821,0.0445972,0.99406165,0.99231887,0.06579274,-0.10475928,0.0701157,-0.99683416,0.037489988,0.09747072200775131,0.15162145085334777,-0.28930347290039116,-0.004377255714872397,-0.0021038101276908035,0.003667036662010144,-0.015998928,-0.007305287,-0.006289777,0.016815186
0.0,0.0,0.0,0.10208821,0.0445972,0.99406165,0.9923189,0.06579275,-0.10475929,0.0701157,-0.99683416,0.037489988,0.0711345037460327,0.04148817448616027,-0.1121325500488286,-0.003999696917567872,-0.0018858502046215481,0.0030880387284559505,-0.015998928,-0.007305287,-0.008168463,0.01675415
0.0,0.0,0.0,0.10208821,0.0445972,0.99406165,0.9923189,0.06579275,-0.10475929,0.0701157,-0.99683416,0.037489988,0.016067865562438888,0.06543019108772274,0.12968181762695252,-0.003899359105167838,-0.0015492699981598267,0.003721007622948433,-0.015998928,-0.007305287,-0.005993775,0.01676941
0.0,0.0,0.0,0.10208821,0.0445972,0.99406165,0.9923189,0.06579275,-0.10475929,0.0701157,-0.99683416,0.037489988,-0.07251759586334239,-0.20272039484977725,0.27572811889648463,-0.00424245028895871,-0.0025551256224179138,0.0050810431793161135,-0.015998928,-0.0107016945,-0.0013741847,0.01675415
0.0,0.0,0.0,0.10208821,0.0445972,0.99406165,0.9923189,0.06579275,-0.10475929,0.0701157,-0.99683416,0.037489988,0.09747072200775131,-0.05906829524040225,0.017154339599608548,-0.00373388442747516,-0.002837691470507835,0.0051414096614175765,-0.015998928,-0.0107016945,-0.0013741847,0.016906738
0.0,0.0,0.0,0.10208821,0.0445972,0.99406165,0.9923189,0.06579275,-0.10475929,0.0701157,-0.99683416,0.037489988,-0.019845159339904828,-0.00879006037712099,-0.1815643981933608,-0.0038144408020373086,-0.002867453315040901,0.0042078806221436844,-0.015998928,-0.0107016945,-0.004427224,0.016815186
-0.08493492,0.0,0.0,0.10208821,0.043182638,0.9941251,0.9923189,0.06594182,-0.10466567,0.07011563,-0.99688655,0.036071446,0.03522147884368887,-0.026270254898071332,-0.10795640563964959,-0.0036192612038086778,-0.0029844673229560536,0.0036470591908347185,-0.015998928,-0.0107016945,-0.006235942,0.01675415
-0.09399465,0.0,0.0,0.10208821,0.041618515,0.9941931,0.9923189,0.0661065,-0.10456192,0.070115544,-0.996942,0.034502935,-0.05575818424224854,-0.054278906106948854,-0.07030530700683713,-0.003879955819000877,-0.0032409395168760177,0.003277297359846359,-0.015998928,-0.0107016945,-0.006235942,0.016738892
0.0,0.0,0.0,0.10208821,0.041618515,0.9941931,0.9923189,0.0661065,-0.10456192,0.07011555,-0.99694204,0.03450294,0.008885260581970145,0.08219058852195738,-0.2259284149169929,-0.003816129736996022,-0.002813781876681851,0.002131268798462163,-0.015998928,-0.0107016945,-0.010017733,0.016738892
0.0,0.0,0.0,0.10208821,0.041618515,0.9941931,0.9923189,0.0661065,-0.10456192,0.07011555,-0.99694204,0.03450294,0.059163495445251346,0.15641083998680116,-0.2714182464599606,-0.0035012316110847853,-0.0020176587673644357,0.0007635212221700494,-0.015998928,-0.008066844,-0.014589964,0.016845703
0.0,0.07433504,0.0,0.10084213,0.041618515,0.99432105,0.99244916,0.066106446,-0.103318095,0.07007231,-0.99694204,0.034590818,0.05681756210327138,-0.09258613266944887,-0.1601248229980481,-0.0031996376425130046,-0.0024705011368748577,-4.092049893104129e-05,-0.015998928,-0.008066844,-0.017289823,0.016860962
0.06814777,0.06754024,0.0,0.09968009,0.042791013,0.99438983,0.9925693,0.06598458,-0.10223613,0.07003182,-0.99690044,0.035848267,-0.03971285915374756,-0.13023185544013977,-0.07459732055664148,-0.003382203750069177,-0.003109307908391182,-0.0004137024992195935,-0.015998928,-0.010320307,-0.017289823,0.017303467
0.0,0.0813963,0.0,0.098319076,0.042791013,0.99452627,0.9927083,0.06598452,-0.10087751,0.06998276,-0.99690044,0.03594412,0.0811540789604186,0.11158251223564142,0.027037280273436437,-0.002959522336516738,-0.0025358488076710193,-0.00027644758535631337,-0.015998928,-0.008444026,-0.017289823,0.016815186
-0.05229327,0.061278373,0.0,0.09728966,0.041912537,0.99466586,0.99281216,0.06607359,-0.09979163,0.06994553,-0.99693185,0.035135973,-0.11481784524917604,0.06977776308059691,0.24835240020751925,-0.0035188139510800346,-0.0021742807482296794,0.0009666966536080643,-0.017938372,-0.008444026,-0.013094784,0.01689148
-0.086400464,0.0,0.0,0.09728966,0.040464826,0.99472684,0.99281216,0.06621883,-0.09969546,0.069945455,-0.9969819,0.033684924,0.02883425436019893,0.07655927467346191,0.19269734497070168,-0.0033570486095236395,-0.0017806129711212212,0.0019253498951935324,-0.017938372,-0.008444026,-0.009848662,0.016845703
-0.094927266,0.0,0.0,0.09728966,0.038881347,0.99479127,0.99281216,0.066377535,-0.09959005,0.06994537,-0.9970344,0.032097816,0.11263131246566771,-0.0925205331325531,0.022087231445311772,-0.002777106804147683,-0.0022343125719283805,0.002026159302944124,-0.01604961,-0.008444026,-0.009848662,0.01676941
-0.092662334,0.0,0.0,0.09728966,0.03733555,0.9948517,0.99281216,0.066532284,-0.0994869,0.06994528,-0.99708295,0.03054849,0.14854433736801131,-0.02493787550926213,-0.2753764694213867,-0.002020499583286888,-0.002347830386615049,0.0006391461593224697,-0.013558609,-0.008444026,-0.014466562,0.01676941
-0.069213636,0.0,0.0,0.09728966,0.036181904,0.994895,0.99281204,0.06664764,-0.09940974,0.06994524,-0.99711776,0.02939224,0.045593665981292664,-0.08324204311370853,-0.18242031402587955,-0.0017824287554639902,-0.0027523014502505165,-0.0002761511416035405,-0.013558609,-0.008444026,-0.01752286,0.01675415
-0.056823127,0.060612217,0.0,0.09627382,0.035229564,0.995029,0.99291295,0.06674276,-0.09833217,0.069915205,-0.99714553,0.028509183,-0.03319332828521737,-0.04771988482475281,-0.042454644775391515,-0.001939483253112757,-0.0029771393671230283,-0.0004870436097724804,-0.013558609,-0.008444026,-0.01752286,0.016845703
0.0,0.0,0.0,0.09627382,0.035229564,0.995029,0.99291295,0.06674276,-0.09833217,0.069915205,-0.99714553,0.028509183,-0.11938458805084229,-0.08363290972709658,0.026977203369140668,-0.002526708777101405,-0.003380418218922896,-0.00034972237487791464,-0.015566084,-0.008444026,-0.01752286,0.016815186
0.0,0.0,0.0508024,0.096303776,0.035147693,0.995029,0.99296945,0.065898396,-0.098332144,0.06906723,-0.9972046,0.028509174,-0.0023576700210571344,0.08714511008262632,-0.054425653076172864,-0.002525863583321183,-0.00292779057741515,-0.0006201020283843894,-0.015566084,-0.008444026,-0.01752286,0.016738892
-0.09599311,0.0,0.081978515,0.096352,0.03341671,0.9950855,0.99305904,0.064693764,-0.098226175,0.06769868,-0.99734294,0.026906786,-0.08661988277435306,-0.09487714481353762,0.0503746719360354,-0.0029463336792763424,-0.0033875373485957624,-0.00036512815856229046,-0.015566084,-0.008444026,-0.01752286,0.016738892
-0.06868071,0.0,0.06305967,0.09638734,0.032168746,0.995124,0.9931271,0.06375674,-0.098151624,0.06664393,-0.99744433,0.025758082,-0.06780714845657354,0.01532257928848263,0.19365483856201138,-0.0032706377531628284,-0.0032939867654103706,0.000604971675040578,-0.015566084,-0.008444026,-0.014275383,0.01676941
-0.050561264,0.0,0.097966254,0.09644038,0.031163001,0.99515134,0.99323106,0.062202707,-0.09809725,0.064999215,-0.99757445,0.024909247,0.053785549545288025,0.11360908408164977,-0.0316642852783211,-0.0029853568166705743,-0.0027094714111750694,0.0004436253902737696,-0.015566084,-0.0065319347,-0.014275383,0.016830444
-0.12290583,0.0,0.10382843,0.09649484,0.028935943,0.99521583,0.99333847,0.0606699,-0.09796845,0.06325574,-0.99773586,0.02284562,0.05086605215072626,0.25719485292434685,0.12094282531738187,-0.00271609977183359,-0.0014099497894974598,0.00104612138990931,-0.015566084,-0.002203231,-0.012239861,0.016830444
-0.24188134,0.0,0.14046703,0.09656318,0.024660204,0.99533355,0.99347985,0.058722008,-0.0977215,0.060898438,-0.9979671,0.018787341,-0.01443662004470836,0.1930922962427139,-0.04539291534423917,-0.002774702373197964,-0.000437438559336403,0.0008139262062385676,-0.015566084,0.0010436518,-0.012239861,0.016815186
-0.31715697,0.0,0.14060026,0.096621275,0.019143837,0.99546456,0.9936165,0.0569009,-0.09740931,0.058546606,-0.9981937,0.013484222,0.056829086494445735,-0.22296220746040343,-0.029897122192382497,-0.0024766834288597454,-0.0015500624038417383,0.0006603709642454623,-0.015566084,-0.0026918906,-0.012239861,0.01675415
-0.23308808,-0.07275225,0.09117146,0.09786276,0.015112441,0.9954216,0.99358356,0.055764522,-0.0983972,0.057039157,-0.9983266,0.00951825,0.0687961723327637,-0.58390841050148,0.1524770523071286,-0.002120319150051628,-0.004461854144329929,0.001419454370959878,-0.015566084,-0.01246587,-0.009687564,0.016738892
-0.14448929,-0.07688242,0.0,0.0991508,0.012691756,0.9953317,0.99345565,0.05600377,-0.0995472,0.057051297,-0.9983466,0.007016672,-0.03939588623046886,-0.2852261058211326,-0.040586392211913846,-0.0023066969854537143,-0.005865675402713943,0.0012094251380455091,-0.015566084,-0.017266352,-0.009687564,0.016830444
-0.11864243,0.0,0.0,0.0991508,0.010707877,0.995357,0.9934555,0.05620218,-0.09943556,0.05705118,-0.9983586,0.0050267726,0.15692864990234368,0.03079073282480238,-0.15335705718994141,-0.0015105202510147272,-0.005682393361576361,0.00043659272640557455,-0.012929694,-0.017266352,-0.012263952,0.016799927
-0.087599546,0.0,0.051468555,0.09916003,0.009161536,0.9953727,0.99350375,0.055491436,-0.09935305,0.056190204,-0.99841374,0.0035615205,-0.10652258205413823,0.03134100407361984,-0.03619376373291061,-0.002035580560030345,-0.005497276374400379,0.00025344094410899363,-0.014714389,-0.017266352,-0.012263952,0.01675415
-0.07414319,0.0,0.07198617,0.09917107,0.007806719,0.9953841,0.99357,0.054417565,-0.09928413,0.05498707,-0.99848443,0.002322411,0.025051995754241885,-0.008263330149650583,0.258183367919921,-0.001900142678458984,-0.00551110664327663,0.0015430905789880537,-0.014714389,-0.017266352,-0.007942248,0.016738892
-0.07680782,0.0,0.073584944,0.09918071,0.00640099,0.9953942,0.99363667,0.05331837,-0.09921391,0.053753752,-0.9985537,0.0010351693,0.07284304571151723,-0.04258817465901375,0.04021374206542916,-0.0015264267365091028,-0.005696491983355316,0.0017364438364202593,-0.014714389,-0.017266352,-0.007942248,0.016784668
0.0,0.0,0.08277789,0.099189624,0.0062629376,0.9953942,0.9937099,0.05193525,-0.099213816,0.05236379,-0.99862754,0.0010351684,0.11585272569656357,-0.04604496923685074,0.018665927124022375,-0.0009395309743437394,-0.005898234369622794,0.0018210912528582699,-0.012766304,-0.017266352,-0.007942248,0.016815186
0.0,0.0,0.10862476,0.099201076,0.006081599,0.9953942,0.9938032,0.050118465,-0.09921365,0.05053801,-0.9987216,0.0010351667,0.0510988334655762,0.10414466552138327,-0.03400650939941485,-0.0006793391521441397,-0.005348019870167763,0.0016419532495969042,-0.012766304,-0.0155135505,-0.007942248,0.016830444
0.0,0.0,0.07611634,0.09920908,0.0059510586,0.9953942,0.9938683,0.048810665,-0.09921357,0.049223736,-0.9987873,0.0010351659,-0.08544784917831427,-0.38780173207521434,0.36821936950683565,-0.0011031817022749903,-0.007260288431192996,0.0034748403308830977,-0.012766304,-0.022217948,-0.0015763951,0.017288208
0.0,-0.06728977,0.051468555,0.10033742,0.0058654314,0.99528223,0.99379754,0.047952816,-0.100334965,0.048362836,-0.9988294,0.000979621,-0.04605324363708496,0.015250080943107605,0.27592506408691264,-0.00132793201194904,-0.007147736584321493,0.004837091449663246,-0.012766304,-0.022217948,0.0030507052,0.01676941
0.07400995,-0.08887323,0.07345171,0.101833396,0.0069811353,0.9951248,0.9937046,0.04659918,-0.101880975,0.04712945,-0.99888647,0.00215144,0.1142937891006468,0.1265926575899124,-0.002677326965333293,-0.0007498234063860607,-0.006479034613450323,0.004799519357588263,-0.010842689,-0.020087337,0.0030507052,0.016830444
0.07654134,-0.11751795,0.10143027,0.103820734,0.0080932565,0.99491364,0.9935785,0.044764772,-0.10391339,0.045422222,-0.9989623,0.0033493352,-0.005431892013549877,0.05361626964807509,0.054426359558105375,-0.0007732337494218798,-0.006178558092142696,0.005047653558590848,-0.010842689,-0.020087337,0.0030507052,0.01689148
0.10944946,-0.11525302,0.11022353,0.10575506,0.009724449,0.9946985,0.99345654,0.04274105,-0.10591179,0.04358544,-0.9990367,0.0050918516,0.18181164722442622,-0.11774077320098877,-0.242774606323243,0.0001396906554473607,-0.006736369167686926,0.0038085422591816794,-0.0077993637,-0.022058187,-0.0010130727,0.016738892
0.16966997,0.0,0.13273962,0.105776705,0.012319223,0.99467087,0.9935486,0.04022818,-0.10603307,0.041361347,-0.9991127,0.007934324,0.18399711341857894,0.19002494684457777,-0.43404371032714906,0.0010589777692630185,-0.005752562587625602,0.001619280996250026,-0.004713841,-0.018871581,-0.008291729,0.01676941
0.101455584,0.0,0.20575033,0.105819136,0.013644128,0.99464995,0.9936807,0.03662606,-0.1061007,0.03792009,-0.9992343,0.009631,0.0806370773315428,0.4956741816282272,-0.31652565002441513,0.0014568682670744175,-0.003245428866546338,2.8556341146700193e-05,-0.004713841,-0.010574545,-0.013590017,0.016738892
0.0,0.0,0.26117453,0.10587922,0.013178137,0.99464995,0.9938324,0.03224992,-0.10609967,0.033519484,-0.9993917,0.009630907,-0.09471912021636963,0.2080763653516769,0.09767123718261672,0.0009759883246571973,-0.002188819895455222,0.0005167697453540503,-0.004713841,-0.007066177,-0.013590017,0.016860962
0.052959412,0.0,0.27050072,0.10593927,0.013583035,0.9946382,0.9939687,0.027626297,-0.10612731,0.02896517,-0.99952507,0.010522391,-0.06656793823242191,-0.03285510394573213,0.28213729858398295,0.0006382686918718017,-0.0023421513157066065,0.0019248723895471946,-0.004713841,-0.007066177,-0.0088372165,0.016845703
0.09492725,-0.095534794,0.25358036,0.107587494,0.014713816,0.99444723,0.99390537,0.023238353,-0.10775952,0.024739107,-0.99962115,0.012064171,-0.10161977920532228,-0.07249265232086181,0.1642697143554681,0.0001269784523858313,-0.002692903820732382,0.002736596599376799,-0.0064148433,-0.007066177,-0.0060875234,0.016738892
0.12237289,-0.08460983,0.24039045,0.109057784,0.016320836,0.99426436,0.9938362,0.019010391,-0.109216325,0.020726336,-0.999686,0.014080271,0.07573438205718985,-0.17897308442592622,-0.1356363510131846,0.0005050154704098514,-0.0035743047237583514,0.002044731861313992,-0.0064148433,-0.01006745,-0.008362065,0.01676941
0.1957833,0.0,0.20042108,0.10911269,0.019221274,0.9942107,0.9938933,0.015308117,-0.109278046,0.017363202,-0.99969846,0.017365206,0.27871199550628645,-0.4655235107421875,-0.23088657226562503,0.0018960503705892345,-0.005884050753850498,0.0008800753406792968,-0.0017367549,-0.017881107,-0.012237419,0.016784668
0.240549,0.06287715,0.13806887,0.10810523,0.02299283,0.9942484,0.99404025,0.012556075,-0.108287774,0.015021601,-0.9996575,0.021430671,0.005913783264160033,-0.3510679646492004,-0.33420059356689436,0.0019161390350570886,-0.0076099703233272475,-0.0007953280038585715,-0.0017367549,-0.023789736,-0.017862163,0.016830444
0.22402832,0.09725081,0.10782537,0.10651816,0.026548678,0.99433875,0.99423677,0.0103418,-0.10670627,0.013170603,-0.999595,0.025227677,0.07868300323486332,-0.13397529969215394,-0.2991592269897474,0.0022999733560561198,-0.00824179697017138,-0.002287147498788016,-0.0017367549,-0.026046643,-0.02290171,0.016845703
0.16900381,0.117102265,0.074650794,0.10460052,0.029230941,0.99447256,0.99445605,0.008796131,-0.1047846,0.011870845,-0.99953514,0.028083747,-0.02492441043853766,-0.20054892864227297,-0.377064001464845,0.002163851437083151,-0.009203332628531888,-0.004161031768618301,-0.0017367549,-0.02940667,-0.029219097,0.01675415
0.0,0.13388939,0.057730425,0.1024,0.02912986,0.994707,0.99469644,0.007835122,-0.10255556,0.010842006,-0.9995461,0.028110338,0.08488656301498398,-0.11098848423957824,-0.3769309616088865,0.0025774649949726553,-0.00971225838658712,-0.006024881417819641,-0.0017367549,-0.031264495,-0.035528503,0.016738892
-0.1159778,0.15707164,0.0,0.09978709,0.027200557,0.9950325,0.9949624,0.008034008,-0.09992714,0.010768144,-0.99959874,0.026200078,0.033475278282165455,-0.1330805078983307,-0.30585115966797005,0.002731954061408619,-0.010329099634145838,-0.007524012809070393,-0.0017367549,-0.033490084,-0.040643446,0.016723633
-0.16567306,0.15467347,0.0,0.097189754,0.02441851,0.995369,0.99521965,0.008313367,-0.097307175,0.010699714,-0.9996682,0.023433283,0.11598920202255236,-0.16849505453109742,-0.10798357391357527,0.003298240301214338,-0.011119929408630595,-0.008026310614592918,0.00022070447,-0.036333643,-0.042465802,0.01687622
-0.1522167,0.11870104,0.0,0.09520482,0.021873124,0.99562526,0.9954117,0.008562186,-0.095301084,0.010652949,-0.99972486,0.020898173,-0.08752558679580691,0.17209149265289303,0.07629223175048772,0.0028441211657292314,-0.010203872298322977,-0.007604717902767515,0.00022070447,-0.03344252,-0.042465802,0.016799927
-0.13316464,0.073002726,0.05906273,0.09400981,0.019559722,0.99579036,0.99553555,0.007790498,-0.09406552,0.009639011,-0.999779,0.018682718,0.02216338510513305,0.18722318284511563,0.2949661483764636,0.0029407174854262507,-0.009216737022605783,-0.006091863571371359,0.00022070447,-0.030308612,-0.037528396,0.016738892
-0.105985455,0.0,0.061727356,0.09403002,0.017695976,0.99582505,0.99554324,0.0069287405,-0.09405166,0.008605974,-0.99982005,0.016908998,-0.05464603481292729,-0.02464311764240265,0.4287067016601558,0.002652783723934483,-0.009293868925704767,-0.003917870745213723,0.00022070447,-0.030308612,-0.03035232,0.016738892
0.0,-0.07141994,0.0,0.09522161,0.017695976,0.9957125,0.99543,0.0069287354,-0.09524284,0.008626207,-0.99982005,0.0168987,-0.04938030605316168,-0.07492135250568391,0.2167080352783195,0.002392618275049002,-0.009622006343604663,-0.0028147412150960564,0.00022070447,-0.030308612,-0.026721561,0.01675415
0.0,-0.09540156,0.051335324,0.096840054,0.017613482,0.9955592,0.995281,0.006066338,-0.096845336,0.007787221,-0.99982715,0.016884806,0.0738724569320679,0.05516125915050504,0.03143945465087761,0.0027500174683340963,-0.009298090016134115,-0.002643470235766188,0.00022070447,-0.030308612,-0.026721561,0.01687622
0.0,-0.05703097,0.0,0.09782944,0.017613482,0.99546295,0.99518424,0.0060663354,-0.09783439,0.007804001,-0.99982715,0.016877066,0.14812621536254866,-0.11961546204090118,0.1065885848999013,0.0034768984578051687,-0.00984967687625795,-0.0020973099600878503,0.0028018833,-0.032392975,-0.024864199,0.017425537
0.0,-0.056764506,0.0,0.09878134,0.017613482,0.99536943,0.9950903,0.006066333,-0.09878599,0.00782014,-0.99982715,0.016869605,-0.004707562541961696,-0.25369075500965116,0.2726906753540028,0.0034359761528063343,-0.011068882266924917,-0.0007233700335173968,0.0028018833,-0.036666576,-0.020270532,0.016845703
0.0,-0.09819942,0.0,0.10042195,0.017613482,0.9952066,0.99492604,0.006066324,-0.100426,0.007847945,-0.99982715,0.016856715,0.08481251573562609,-0.09327924377918244,0.12582087402343767,0.003842858850720433,-0.011479934074486204,-9.064881323262157e-05,0.0028018833,-0.036666576,-0.01815867,0.016784668
-0.0541585,-0.13843526,0.0,0.10274281,0.016705517,0.9949885,0.9946891,0.00615793,-0.10274039,0.007887252,-0.99984205,0.015926225,0.026513237953186053,0.04715976660251617,0.1111643142700185,0.003956210746232761,-0.011186735571101192,0.00046562600218363404,0.0028018833,-0.036666576,-0.016286029,0.016845703
-0.14995177,-0.1672132,0.0,0.10554045,0.014196686,0.99474174,0.9943964,0.006416962,-0.105521254,0.007932006,-0.999879,0.013382937,0.03544121360778796,-0.019620559716224673,0.15903451690673798,0.004113635760540538,-0.01122890469182681,0.0012584704567064058,0.0028018833,-0.036666576,-0.013611834,0.016815186
-0.21710032,-0.14989315,-0.060312457,0.10802423,0.010685128,0.99452835,0.99412084,0.0078055677,-0.107994735,0.008975912,-0.9999124,0.009726055,0.03063709754943833,-0.17728539201021193,-0.11902904815673843,0.004246253069485026,-0.012059187128418736,0.0006570328636391816,0.0028018833,-0.039636843,-0.015606064,0.01675415
-0.2055092,-0.07861442,-0.077366054,0.10932265,0.0073948745,0.9944227,0.99396604,0.009468994,-0.10927934,0.010287126,-0.99992746,0.006265067,0.2096491024017333,-0.11202988939285277,-0.35503553466796944,0.005273267316146267,-0.012559040639740907,-0.0011214299740188614,0.0063207736,-0.041517228,-0.021565218,0.016784668
-0.16940354,0.0,-0.09561874,0.10931075,0.004735573,0.9944438,0.9939489,0.011380139,-0.10925213,0.011896251,-0.9999234,0.0034141187,0.24567692584991452,-0.15820521815419197,-0.19722135772705052,0.0064752856088151085,-0.013287271527313162,-0.0021019296127840195,0.010455625,-0.04417989,-0.02488454,0.016830444
-0.22842497,0.089390166,-0.11786835,0.107809335,0.0011390969,0.9946259,0.9940863,0.013765371,-0.10771677,0.013869231,-0.9999038,-0.00040177235,0.15481419334411606,-0.16182204878777265,-0.3378417221069334,0.007216980147491613,-0.01402994541361546,-0.003780628575254767,0.01305413,-0.046896018,-0.030555101,0.016784668
-0.28851226,0.19304407,-0.12826039,0.10458411,-0.0034453678,0.99498075,0.9943968,0.016426928,-0.10442816,0.016022911,-0.99985814,-0.0051988787,0.09973238582611077,-0.280407564663887,0.3530540222167957,0.007679557175884709,-0.015361833509866817,-0.0019964553212945143,0.01305413,-0.051602565,-0.024629207,0.016784668
-0.09745865,0.17692308,-0.112139404,0.10164395,-0.004872216,0.99528486,0.9946687,0.018463738,-0.10145579,0.017915076,-0.9998165,-0.0067825243,0.11851534996032709,0.08290877273678779,0.8169898437499992,0.00823373613980692,-0.014870480478633544,0.002098476174061954,0.0150379455,-0.051602565,-0.010953703,0.016738892
0.15568069,0.1505433,-0.06870602,0.09913923,-0.0021592134,0.9955539,0.9948999,0.019344019,-0.09899483,0.019083003,-0.9998094,-0.0041295025,0.056483760070800804,0.662473088723421,0.9388933822631831,0.00847498625946189,-0.011483762632623271,0.00678245070450756,0.0150379455,-0.04050339,0.004776658,0.01675415
0.058821585,0.0,0.0,0.09913923,-0.0011763023,0.99555606,0.9948999,0.01924628,-0.099013925,0.019082993,-0.99981296,-0.0031423885,0.022964936828613225,0.16457512163221835,0.5150987075805666,0.008547436012307646,-0.010603468211299063,0.009324031988887855,0.0150379455,-0.03774105,0.013422418,0.016784668
-0.05722282,-0.05969559,0.0,0.10013947,-0.002135108,0.9954553,0.9948,0.019341629,-0.09999492,0.019079827,-0.99980944,-0.004124465,0.06359520626068105,-0.16375899802446364,-0.07290310668945388,0.008822674863549514,-0.011369245860364887,0.008912896295496147,0.0150379455,-0.040497188,0.013422418,0.016830444
-0.08386907,-0.072086096,0.0,0.10134938,-0.0035427944,0.9953306,0.9946777,0.01948302,-0.10117661,0.019074796,-0.99980265,-0.005561494,0.08065521554946886,-0.17412294616103172,-0.449983432006837,0.009181837566979111,-0.01218301436186822,0.006618414653984481,0.0150379455,-0.043433066,0.005835265,0.016860962
0.0,0.0,0.0,0.10134938,-0.0035427944,0.9953306,0.9946777,0.01948302,-0.10117661,0.019074796,-0.99980265,-0.005561494,0.15008706369400016,-0.20045916442275047,-0.5385688934326183,0.009886363697614217,-0.013124395112172631,0.003892478113551467,0.017552527,-0.04679159,-0.0031879994,0.01675415
0.11238055,0.10710993,0.0,0.099563226,-0.0016687455,0.9955191,0.9948577,0.01929249,-0.099428155,0.019084739,-0.99981123,-0.0036447875,0.12661429843902572,-0.35500510123372075,-0.5810889785766609,0.010470003371321274,-0.014833798642780371,0.0009675708301004051,0.019673841,-0.0527394,-0.012923651,0.01675415
0.22789203,0.2080992,-0.08709194,0.0960916,0.002281155,0.9958729,0.9951702,0.020365354,-0.09602951,0.020557486,-0.9997887,0.00024270361,0.14334101467132565,-0.4912667755872011,-0.5821079772949229,0.011134358427821296,-0.017215963527502477,-0.0019478069105247117,0.022077585,-0.060977653,-0.022685258,0.01676941
0.23388743,0.22102262,-0.12186529,0.092385724,0.006394694,0.99622107,0.99547744,0.022026798,-0.09241028,0.022605108,-0.9997355,0.0042510927,-0.13215958042144782,0.07957683969140053,0.9683710128784178,0.010417888733574951,-0.016731999511407962,0.0029037871884200006,0.019855296,-0.060977653,-0.0064019193,0.016815186
0.0,0.0,-0.071237415,0.09237808,0.006505159,0.99622107,0.9954504,0.023217069,-0.092410214,0.023800472,-0.99970776,0.0042510894,0.03311406507492065,0.40891115753650664,0.9516116012573228,0.010531369615281679,-0.014603783726168388,0.0076473262587645145,0.019855296,-0.054114215,0.009570565,0.016784668
-0.052692965,0.0,0.0,0.09237808,0.0056264703,0.9962268,0.9954504,0.023298576,-0.09238973,0.02380046,-0.99971104,0.0033693237,0.23901540784835817,-0.0015985946476459525,-0.10428664398193455,0.011673789806447062,-0.014538757780775775,0.007087656407561019,0.02385615,-0.054114215,0.007824922,0.016738892
0.0,0.0,0.0,0.09237808,0.0056264703,0.9962268,0.9954504,0.023298576,-0.09238973,0.023800462,-0.9997111,0.003369324,0.05705608167648313,0.07022745515704154,0.03936545562744165,0.011900701265797241,-0.014114926716086688,0.007249045403660422,0.02385615,-0.054114215,0.007824922,0.016799927
0.0,0.0,0.0,0.09237808,0.0056264703,0.9962268,0.9954504,0.023298576,-0.09238973,0.023800462,-0.9997111,0.003369324,0.028325661754608156,-0.19074052579998968,0.013029237365721258,0.011982826068241297,-0.014998054711506203,0.007277946363470726,0.02385615,-0.057315733,0.007824922,0.016784668
0.0,0.0,0.0,0.09237808,0.0056264703,0.9962268,0.9954504,0.023298576,-0.09238973,0.023800462,-0.9997111,0.003369324,0.1552183497428894,-0.3798824569523334,-0.1665358871459972,0.012699003686614538,-0.01682247672271034,0.006408877195923386,0.026546702,-0.06390061,0.0049381917,0.017333984
0.0,0.0,0.0,0.09237808,0.0056264703,0.9962268,0.9954504,0.023298576,-0.09238973,0.023800462,-0.9997111,0.003369324,0.018748855113983054,0.04628543855547905,0.14949873199462793,0.01272925294375138,-0.016506937146319393,0.007124326469916909,0.026546702,-0.06390061,0.007456603,0.016845703
-0.05815544,0.0,0.0,0.09237808,0.0046540336,0.9962323,0.9954504,0.02338876,-0.09236699,0.023800451,-0.9997139,0.002393485,0.0857865015983581,-0.08798686437010765,0.06086081848144431,0.013094539187024416,-0.016864336782438333,0.007393008929974546,0.026546702,-0.06390061,0.007456603,0.016784668
-0.071212105,0.0,0.0,0.09237808,0.003466513,0.9962378,0.9954504,0.023498863,-0.09233911,0.023800435,-0.99971604,0.0012018136,-0.08180761461257935,0.28259780668020246,0.12545085754394414,0.012620028418026397,-0.015367026065125128,0.007983298173044393,0.026546702,-0.05917024,0.009556511,0.016738892
0.0,0.0,0.0,0.09237808,0.003466513,0.9962378,0.9954504,0.023498863,-0.09233911,0.023800435,-0.99971604,0.0012018136,0.0355082667350769,0.17964713529348372,0.07996102600097643,0.01273446960961165,-0.014391955258332083,0.008343186812184052,0.026546702,-0.056149438,0.009556511,0.016815186
0.0,0.0,0.0,0.09237808,0.003466513,0.9962378,0.9954504,0.023498863,-0.09233911,0.023800435,-0.99971604,0.0012018136,0.02353725843429555,-0.1579352987885475,0.070384219360351,0.01278848355373507,-0.015109671975983159,0.008653391974924887,0.026546702,-0.05881238,0.009556511,0.016860962
0.0,0.0,0.0,0.09237808,0.003466513,0.9962378,0.9954504,0.023498863,-0.09233911,0.023800435,-0.99971604,0.0012018136,0.0857865015983581,-0.16032950044870375,-0.03496065368652346,0.013153473643958186,-0.01583577111834676,0.008435321746617645,0.026546702,-0.061498564,0.009556511,0.01675415
0.0,0.0,0.0,0.09237808,0.003466513,0.9962378,0.9954504,0.023498863,-0.09233911,0.023800435,-0.99971604,0.0012018136,0.0067778468132018155,-0.08850345064401627,-0.030172250366211628,0.013121595509804403,-0.016199109515975106,0.0082422838860535,0.026546702,-0.061498564,0.009556511,0.01676941
0.0,0.0,0.0,0.09237808,0.003466513,0.9962378,0.9954504,0.023498863,-0.09233911,0.023800435,-0.99971604,0.0012018136,0.06902708997726437,0.05514864896535873,0.039259597778320554,0.013401122982141704,-0.01584237072356844,0.008397370455514834,0.026546702,-0.061498564,0.009556511,0.01676941
0.0,0.0,0.0,0.09237808,0.003466513,0.9962378,0.9954504,0.023498863,-0.09233911,0.023800435,-0.99971604,0.0012018136,0.06423868665695187,-0.26567437349557876,0.05841321105956965,0.013655310800515755,-0.01709153073742849,0.008647449658535108,0.026546702,-0.06596998,0.009556511,0.016830444
0.0,0.0,0.0,0.09237808,0.003466513,0.9962378,0.9954504,0.023498863,-0.09233911,0.023800435,-0.99971604,0.0012018136,0.09775750989913934,-0.12202227388620376,-0.04693166198730481,0.014075821796008872,-0.017616184453172368,0.008369554100305907,0.026546702,-0.06801995,0.009556511,0.016799927
0.0661493,0.0,0.0,0.09237808,0.0045696134,0.996234,0.9954504,0.023396619,-0.09236513,0.02380042,-0.99971414,0.0023087638,-0.043500388050079386,-0.015346525710821152,0.21167835693359294,0.013787940746778431,-0.01760483615946061,0.009386098114472342,0.026546702,-0.06801995,0.013099773,0.016738892
0.050960943,0.0,0.0,0.09237808,0.005425628,0.99623007,0.99545026,0.023317251,-0.092385225,0.023800408,-0.9997117,0.0031677673,-0.21348870592117308,-0.6820088088035583,0.5014149047851557,0.012651557513438673,-0.020926856022681097,0.01184624214782576,0.022947077,-0.07951927,0.02155411,0.016860962
0.0,0.0,0.0,0.09237808,0.005425628,0.99623007,0.9954503,0.023317253,-0.09238523,0.02380041,-0.99971175,0.0031677675,-0.2039118992805481,-0.09303520040512084,0.46550187988281166,0.01156874022946874,-0.021287397744593296,0.01411452033650069,0.019512037,-0.07951927,0.029395817,0.016845703
0.0,0.0,0.0,0.09237808,0.005425628,0.99623007,0.9954503,0.023317253,-0.09238523,0.02380041,-0.99971175,0.0031677675,0.01156625013351431,-0.09303520040512084,0.09440062255859338,0.011568727778988968,-0.021646136757895933,0.014515950847611153,0.019512037,-0.07951927,0.029395817,0.01687622
0.0,0.0,0.0,0.09237808,0.005425628,0.99623007,0.9954503,0.023317253,-0.09238523,0.02380041,-0.99971175,0.0031677675,0.1600067530632019,-0.10740041036605835,-0.027703662109376026,0.012310917905410033,-0.022074908125936744,0.014304852782826217,0.022195255,-0.081320316,0.029395817,0.01676941
0.0,0.0,0.0,0.09237808,0.005425628,0.99623007,0.9954503,0.023317253,-0.09238523,0.02380041,-0.99971175,0.0031677675,0.025931460094451797,-0.1097946120262146,-0.01812685546875059,0.01237902061635524,-0.022513506645438133,0.014142694241568332,0.022195255,-0.083159834,0.029395817,0.01675415
0.0,0.0,0.0,0.09237808,0.005425628,0.99623007,0.9954503,0.023317253,-0.09238523,0.02380041,-0.99971175,0.0031677675,0.10972851819992058,-0.07388158712387086,-0.013338452148438762,0.012865768104273067,-0.022770347047830295,0.014005288509618297,0.024033664,-0.083159834,0.029395817,0.01675415
0.0,0.0,0.0,0.09237808,0.005425628,0.99623007,0.9954503,0.023317253,-0.09238523,0.02380041,-0.99971175,0.0031677675,0.12648792982101442,-0.13373662862777708,-0.008550048828125156,0.013433878912856774,-0.02332517845573003,0.01389251182292958,0.026160581,-0.08540864,0.029395817,0.016815186
0.0,0.0,0.0,0.09237808,0.005425628,0.99623007,0.9954503,0.023317253,-0.09238523,0.02380041,-0.99971175,0.0031677675,0.07142129163742061,-0.1385250319480896,0.06806440429687477,0.013723815976479592,-0.02390117772319183,0.014163371285299306,0.026160581,-0.087748535,0.029395817,0.01689148
0.0,0.0,0.0,0.09237808,0.005425628,0.99623007,0.9954503,0.023317253,-0.09238523,0.02380041,-0.99971175,0.0031677675,0.040296670055389394,-0.09064099874496459,0.008209362792968022,0.01385668024687414,-0.02423487682830069,0.014133601242837648,0.026160581,-0.087748535,0.029395817,0.01676941
0.0,0.0,0.0,0.09237808,0.005425628,0.99623007,0.9954503,0.023317253,-0.09238523,0.02380041,-0.99971175,0.0031677675,0.16958355970382688,-0.1481018385887146,0.0010267578125002785,0.014635314644158905,-0.02485421163710276,0.014068067025685962,0.028999222,-0.0902276,0.029395817,0.016738892
0.0,0.0,0.0,0.09237808,0.005425628,0.99623007,0.9954503,0.023317253,-0.09238523,0.02380041,-0.99971175,0.0031677675,0.04269087171554564,-0.1481018385887146,-0.01812685546875059,0.014775592429515838,-0.02547044977186082,0.013907092413213779,0.028999222,-0.09271344,0.029395817,0.016784668
0.0,0.0,0.0,0.09237808,0.005425628,0.99623007,0.9954503,0.023317253,-0.09238523,0.02380041,-0.99971175,0.0031677675,0.12648792982101442,-0.08345839376449585,-0.015732653808594677,0.015334154116473332,-0.025760389491823996,0.013758893682104737,0.03112035,-0.09271344,0.029395817,0.01676941
0.0,0.0,0.0,0.09237808,0.005425628,0.99623007,0.9954503,0.023317253,-0.09238523,0.02380041,-0.99971175,0.0031677675,0.00198944349288932,-0.08345839376449585,-0.010944250488281071,0.015267430563355413,-0.026048879513187358,0.013635377961252807,0.03112035,-0.09271344,0.029395817,0.01737976
0.0,0.0,0.0,0.09237808,0.005425628,0.99623007,0.9954503,0.023317253,-0.09238523,0.02380041,-0.99971175,0.0031677675,0.12169952650070193,-0.13134242696762083,0.015391967773437543,0.015799591043042144,-0.026575347250459524,0.01364416091031373,0.033170465,-0.09492599,0.029395817,0.016845703
0.0,0.0,0.0,0.09237808,0.005425628,0.99623007,0.9954503,0.023317253,-0.09238523,0.02380041,-0.99971175,0.0031677675,-0.033923581409454395,-0.12655402364730833,0.03215137939453072,0.015550975180779662,-0.027075240632443768,0.013736697002734815,0.033170465,-0.09704823,0.029395817,0.01676941
0.0,0.0,0.0,0.09237808,0.005425628,0.99623007,0.9954503,0.023317253,-0.09238523,0.02380041,-0.99971175,0.0031677675,0.06663288831710812,-0.11218881368637085,-0.06361668701172007,0.015806384746461302,-0.027500808497713403,0.01334993008266254,0.033170465,-0.09893128,0.029395817,0.016784668
0.0,0.0,0.0,0.09237808,0.005425628,0.99623007,0.9954503,0.023317253,-0.09238523,0.02380041,-0.99971175,0.0031677675,-0.01716416978836066,-0.1050062087059021,0.041728186035156156,0.015641531973787193,-0.027888335498754347,0.013491821362425008,0.033170465,-0.10069538,0.029395817,0.016799927
0.0,0.0,0.0,0.09237808,0.005425628,0.99623007,0.9954503,0.023317253,-0.09238523,0.02380041,-0.99971175,0.0031677675,0.19352557630538936,-0.09303520040512084,-0.08995290527343869,0.016530952195445203,-0.028214069823286177,0.012974597729245689,0.03641873,-0.10069538,0.029395817,0.016784668
0.0,0.0,0.0,0.09237808,0.005425628,0.99623007,0.9954503,0.023317253,-0.09238523,0.02380041,-0.99971175,0.0031677675,0.040296670055389394,-0.13134242696762083,-0.03488626708984377,0.016649780784744925,-0.02872971160900785,0.012735293405150241,0.03641873,-0.102893904,0.029395817,0.016738892
0.0,0.0,0.0,0.09237808,0.005425628,0.99623007,0.9954503,0.023317253,-0.09238523,0.02380041,-0.99971175,0.0031677675,0.1504299464225769,-0.13373662862777708,0.015391967773437543,0.017318681612934084,-0.029254746194101695,0.012748576776991677,0.03894135,-0.10513659,0.029395817,0.01676941
0.0,0.0,0.0,0.09237808,0.005425628,0.99623007,0.9954503,0.023317253,-0.09238523,0.02380041,-0.99971175,0.0031677675,-0.012375766468048166,-0.14570763692855834,0.005815161132812108,0.017170209372529173,-0.029837010647773977,0.012713909698770778,0.03894135,-0.10759114,0.029395817,0.016845703
0.0,0.0,0.0,0.09237808,0.005425628,0.99623007,0.9954503,0.023317253,-0.09238523,0.02380041,-0.99971175,0.0031677675,0.040296670055389394,-0.11697721700668334,0.012997766113279852,0.017285841675943475,-0.030272711679568524,0.012715328980843323,0.03894135,-0.10955635,0.029395817,0.016799927
0.0,0.0,0.0,0.09237808,0.005425628,0.99623007,0.9954503,0.023317253,-0.09238523,0.02380041,-0.99971175,0.0031677675,0.10494011487960808,-0.07388158712387086,0.03215137939453072,0.017724113041961795,-0.030490756056790035,0.01281250923291176,0.040701132,-0.10955635,0.029395817,0.01676941
0.0,0.0,0.0,0.09237808,0.005425628,0.99623007,0.9954503,0.023317253,-0.09238523,0.02380041,-0.99971175,0.0031677675,0.0857865015983581,-0.0810641921043396,0.04412238769531207,0.018064424984743775,-0.030743623237027784,0.012969058625223764,0.040701132,-0.10955635,0.029395817,0.01675415
0.0,0.0,0.0,0.09237808,0.005425628,0.99623007,0.9954503,0.023317253,-0.09238523,0.02380041,-0.99971175,0.0031677675,0.05705608167648313,-0.07388158712387086,-0.013338452148438762,0.018259383268202475,-0.030959313056462,0.01283752107135545,0.040701132,-0.10955635,0.029395817,0.01676941
0.0,0.0,0.0,0.09237808,0.005425628,0.99623007,0.9954503,0.023317253,-0.09238523,0.02380041,-0.99971175,0.0031677675,0.07142129163742061,-0.13373662862777708,-0.010944250488281071,0.018525192810048566,-0.03147319963431858,0.012718612213557268,0.040701132,-0.11180107,0.029395817,0.016784668
0.0,0.0,0.0,0.09237808,0.005425628,0.99623007,0.9954503,0.023317253,-0.09238523,0.02380041,-0.99971175,0.0031677675,0.12888213148117056,-0.08345839376449585,0.027362976074218892,0.019076977503404178,-0.031733125604969464,0.012791834032860576,0.042872243,-0.11180107,0.029395817,0.016845703
0.0,0.0,0.0,0.09237808,0.005425628,0.99623007,0.9954503,0.023317253,-0.09238523,0.02380041,-0.99971175,0.0031677675,0.06902708997726437,-0.13134242696762083,0.03215137939453072,0.01932672806577348,-0.03223117211178272,0.012888631759668926,0.042872243,-0.114003606,0.029395817,0.01676941
0.0,0.0,0.0,0.09237808,0.005425628,0.99623007,0.9954503,0.023317253,-0.09238523,0.02380041,-0.99971175,0.0031677675,0.19831397962570185,-0.14570763692855834,0.015391967773437543,0.02022166432357312,-0.0327985544358666,0.012901148439737768,0.0461918,-0.11644259,0.029395817,0.016738892
0.0,0.0,0.0,0.09237808,0.005425628,0.99623007,0.9954503,0.023317253,-0.09238523,0.02380041,-0.99971175,0.0031677675,0.028325661754608156,-0.13613083028793332,0.0489107910156239,0.020262184310728293,-0.03331521581512693,0.013081196652617198,0.0461918,-0.11872127,0.029395817,0.016738892
0.0,0.0,0.0,0.09237808,0.005425628,0.99623007,0.9954503,0.023317253,-0.09238523,0.02380041,-0.99971175,0.0031677675,0.18394876966476437,-0.08345839376449585,0.005815161132812108,0.02108061723749847,-0.03356593170487378,0.013044866475018171,0.04927932,-0.11872127,0.029395817,0.016784668
0.0,0.0,0.0,0.09237808,0.005425628,0.99623007,0.9954503,0.023317253,-0.09238523,0.02380041,-0.99971175,0.0031677675,0.028325661754608156,-0.12176562032699585,0.003420959472656193,0.02111684246008402,-0.034006930147984386,0.012996746940006363,0.04927932,-0.12076878,0.029395817,0.016815186
0.0,0.0,0.0,0.09237808,0.005425628,0.99623007,0.9954503,0.023317253,-0.09238523,0.02380041,-0.99971175,0.0031677675,0.13845893812179555,-0.08345839376449585,0.010603564453123937,0.02170355293839258,-0.03425418746606695,0.01298478102757195,0.051601194,-0.12076878,0.029395817,0.01676941
0.0,0.0,0.0,0.09237808,0.005425628,0.99623007,0.9954503,0.023317253,-0.09238523,0.02380041,-0.99971175,0.0031677675,0.07860389661788936,-0.15528444356918336,-0.003761645507813327,0.021988054656790067,-0.03485933874658253,0.012901048894895024,0.051601194,-0.12337044,0.029395817,0.01675415
0.0,0.0,0.0,0.09237808,0.005425628,0.99623007,0.9954503,0.023317253,-0.09238523,0.02380041,-0.99971175,0.0031677675,0.09775750989913934,-0.1768322585105896,0.015391967773437543,0.022366901933001813,-0.03556920334540256,0.012913503489287737,0.051601194,-0.12633851,0.029395817,0.016784668
0.0,0.0,0.0,0.09237808,0.005425628,0.99623007,0.9954503,0.023317253,-0.09238523,0.02380041,-0.99971175,0.0031677675,-0.055471396350860624,-0.1097946120262146,-0.061222485351562383,0.0219777104415825,-0.035940330388806625,0.012542823545083487,0.051601194,-0.1282484,0.029395817,0.01739502
0.0,0.0,0.0,0.09237808,0.005425628,0.99623007,0.9954503,0.023317253,-0.09238523,0.02380041,-0.99971175,0.0031677675,0.1552183497428894,-0.0523337721824646,-0.037280468749999685,0.022643913638089035,-0.036022297597774915,0.012293707083608071,0.054215956,-0.1282484,0.029395817,0.016845703
0.0,0.0,0.0,0.09237808,0.005425628,0.99623007,0.9954503,0.023317253,-0.09238523,0.02380041,-0.99971175,0.0031677675,0.049873476696014385,-0.10740041036605835,-0.17374996337890636,0.022780061453378662,-0.03637918816161633,0.0113634887312955,0.054215956,-0.13005272,0.02647683,0.016799927
0.0,0.0,0.0,0.09237808,0.005425628,0.99623007,0.9954503,0.023317253,-0.09238523,0.02380041,-0.99971175,0.0031677675,0.12169952650070193,-0.09064099874496459,0.05609339599609342,0.02327465877861528,-0.036650497214533076,0.01158713826761949,0.056254927,-0.13005272,0.02647683,0.01675415
0.0,0.0,0.0,0.09237808,0.005425628,0.99623007,0.9954503,0.023317253,-0.09238523,0.02380041,-0.99971175,0.0031677675,0.1360647364616394,-0.11697721700668334,-0.006155847167969242,0.0238386091670304,-0.03705213081349383,0.011498423340441545,0.058534577,-0.13201258,0.02647683,0.01675415
0.0,0.0,0.0,0.09237808,0.005425628,0.99623007,0.9954503,0.023317253,-0.09238523,0.02380041,-0.99971175,0.0031677675,0.0809980982780456,-0.09303520040512084,-0.03009786376953194,0.024124406612585476,-0.03733204616145197,0.011290441904891677,0.058534577,-0.13201258,0.02647683,0.016845703
0.0,0.0,0.0,0.09237808,0.005425628,0.99623007,0.9954503,0.023317253,-0.09238523,0.02380041,-0.99971175,0.0031677675,0.07620969495773311,-0.1050062087059021,-0.049251477050781034,0.024384833054311213,-0.03767041697417422,0.010987732310113314,0.058534577,-0.13377668,0.02647683,0.016799927
0.0,0.0,0.0,0.09237808,0.005425628,0.99623007,0.9954503,0.023317253,-0.09238523,0.02380041,-0.99971175,0.0031677675,0.11930532484054557,-0.09064099874496459,0.005815161132812108,0.024859435513242385,-0.03793526988302817,0.010961869454226806,0.060535256,-0.13377668,0.02647683,0.01676941
0.0,0.0,0.0,0.09237808,0.005425628,0.99623007,0.9954503,0.023317253,-0.09238523,0.02380041,-0.99971175,0.0031677675,-0.014769968128204414,-0.1050062087059021,-0.039674670410157375,0.02466128849503515,-0.03827062457714254,0.010708686754904885,0.060535256,-0.13554078,0.02647683,0.016799927
0.0,0.0,0.0,0.09237808,0.005425628,0.99623007,0.9954503,0.023317253,-0.09238523,0.02380041,-0.99971175,0.0031677675,0.20310238294601435,-0.0762757887840271,0.029757177734374807,0.02555349396729005,-0.03846065039817696,0.010803929209802235,0.063953556,-0.13554078,0.02647683,0.016830444
0.0,0.0,0.0,0.09237808,0.005425628,0.99623007,0.9954503,0.023317253,-0.09238523,0.02380041,-0.99971175,0.0031677675,0.07860389661788936,-0.1050062087059021,-0.05882828369140647,0.025818745980543047,-0.03879337818971559,0.01045576814529619,0.063953556,-0.13730809,0.02647683,0.016830444
0.0,0.0,0.0,0.09237808,0.005425628,0.99623007,0.9954503,0.023317253,-0.09238523,0.02380041,-0.99971175,0.0031677675,0.0355082667350769,-0.08824679708480834,-0.0013674438476574124,0.025867193584315717,-0.03904064528419105,0.010396652085331424,0.063953556,-0.13730809,0.02647683,0.01676941
0.0,0.0,0.0,0.09237808,0.005425628,0.99623007,0.9954503,0.023317253,-0.09238523,0.02380041,-0.99971175,0.0031677675,0.06902708997726437,-0.0954294020652771,-0.02291525878906242,0.026082993066280463,-0.03932258906809648,0.010230092530959453,0.063953556,-0.13730809,0.02647683,0.016830444
0.0,0.0,0.0,0.09237808,0.005425628,0.99623007,0.9954503,0.023317253,-0.09238523,0.02380041,-0.99971175,0.0031677675,0.04508507337570189,-0.11697721700668334,0.03933398437500024,0.026178003467827567,-0.03971086220778941,0.010375611990179657,0.063953556,-0.13926972,0.02647683,0.01676941
0.0,0.0,0.0,0.09237808,0.005425628,0.99623007,0.9954503,0.023317253,-0.09238523,0.02380041,-0.99971175,0.0031677675,0.04508507337570189,-0.09782360372543335,0.008209362792968022,0.026272538817366936,-0.04000142591537763,0.010364780744193598,0.063953556,-0.13926972,0.02647683,0.016799927
0.0,0.0,0.0,0.09237808,0.005425628,0.99623007,0.9954503,0.023317253,-0.09238523,0.02380041,-0.99971175,0.0031677675,-0.021952573108673157,-0.10740041036605835,-0.008550048828125156,0.026031413257736735,-0.040338420837631034,0.010270206596332005,0.063953556,-0.14107569,0.02647683,0.016815186
0.0,0.0,0.0,0.09237808,0.005425628,0.99623007,0.9954503,0.023317253,-0.09238523,0.02380041,-0.99971175,0.0031677675,0.16240095472335803,-0.11697721700668334,-0.006155847167969242,0.02671326096506484,-0.0407216148184763,0.010188076327510499,0.06667197,-0.14303376,0.02647683,0.016738892
0.0,0.0,0.0,0.09237808,0.005425628,0.99623007,0.9954503,0.023317253,-0.09238523,0.02380041,-0.99971175,0.0031677675,-0.0027989598274231753,-0.11218881368637085,0.04412238769531207,0.0265656998611024,-0.04107895081281577,0.010357747884349507,0.06667197,-0.14491339,0.02647683,0.01675415
0.0,0.0,0.0,0.09237808,0.005425628,0.99623007,0.9954503,0.023317253,-0.09238523,0.02380041,-0.99971175,0.0031677675,0.11212271986007694,-0.0714873854637146,0.0010267578125002785,0.026993484961097273,-0.04123099298607026,0.010311092933990261,0.06855049,-0.14491339,0.02647683,0.01675415
0.0,0.0,0.0,0.09237808,0.005425628,0.99623007,0.9954503,0.023317253,-0.09238523,0.02380041,-0.99971175,0.0031677675,0.03311406507492065,-0.1050062087059021,0.0489107910156239,0.02702408786166639,-0.04154986906466942,0.010504091424398428,0.06855049,-0.14667588,0.02647683,0.016784668
0.0,0.0,0.0,0.09237808,0.005425628,0.99623007,0.9954503,0.023317253,-0.09238523,0.02380041,-0.99971175,0.0031677675,0.049873476696014385,-0.1145830153465271,-0.05403988037109464,0.02713833480583813,-0.04191503479607871,0.010181371565420963,0.06855049,-0.14860961,0.02647683,0.01687622
0.0,0.0,0.0,0.09237808,0.005425628,0.99623007,0.9954503,0.023317253,-0.09238523,0.02380041,-0.99971175,0.0031677675,0.030719863414764403,-0.10740041036605835,-0.05882828369140647,0.02715624244888276,-0.0422424616739286,0.009836323289136827,0.06855049,-0.15041229,0.02647683,0.016784668
0.0,0.0,0.0,0.09237808,0.005425628,0.99623007,0.9954503,0.023317253,-0.09238523,0.02380041,-0.99971175,0.0031677675,0.06663288831710812,-0.15049604024887084,0.053699194335937506,0.027353625678223886,-0.04278372956680331,0.010055637644370828,0.06855049,-0.15293603,0.02647683,0.01676941
0.0,0.0,0.0,0.09237808,0.005425628,0.99623007,0.9954503,0.023317253,-0.09238523,0.02380041,-0.99971175,0.0031677675,0.0211430567741393,-0.09303520040512084,-0.04206887207031329,0.027322572833703464,-0.0430349869209949,0.009795015095797409,0.06855049,-0.15293603,0.02647683,0.01687622
0.0,0.0,0.0,0.09237808,0.005425628,0.99623007,0.9954503,0.023317253,-0.09238523,0.02380041,-0.99971175,0.0031677675,0.15761255140304553,-0.1050062087059021,0.03215137939453072,0.027974022726550175,-0.043344843029919436,0.009906796917291075,0.07129457,-0.15476422,0.02647683,0.017410278
0.0,0.0,0.0,0.09237808,0.005425628,0.99623007,0.9954503,0.023317253,-0.09238523,0.02380041,-0.99971175,0.0031677675,0.04747927503585814,-0.14091923360824585,0.034545581054686636,0.028071548988096717,-0.04383271498281107,0.010029990837978054,0.07129457,-0.15714025,0.02647683,0.016860962
0.0,0.0,0.0,0.09237808,0.005425628,0.99623007,0.9954503,0.023317253,-0.09238523,0.02380041,-0.99971175,0.0031677675,0.14324734144210804,-0.12176562032699585,0.07524700927734251,0.02864742795036677,-0.04422237950953199,0.010356075930174877,0.07370111,-0.1591859,0.02647683,0.016799927
0.0,0.0,0.0,0.09237808,0.005425628,0.99623007,0.9954503,0.023317253,-0.09238523,0.02380041,-0.99971175,0.0031677675,0.0355082667350769,-0.1385250319480896,-0.006155847167969242,0.028681732144290324,-0.04469389277172478,0.010273516314684157,0.07370111,-0.16151522,0.02647683,0.016815186
0.0,0.0,0.0,0.09237808,0.005425628,0.99623007,0.9954503,0.023317253,-0.09238523,0.02380041,-0.99971175,0.0031677675,0.1600067530632019,-0.10740041036605835,-0.01812685546875059,0.029338357248884884,-0.04500742535969645,0.010131514455766983,0.076389216,-0.16331954,0.02647683,0.016799927
0.0,0.0,0.0,0.09237808,0.005425628,0.99623007,0.9954503,0.023317253,-0.09238523,0.02380041,-0.99971175,0.0031677675,-0.03631778306961064,-0.1241598219871521,0.058487597656249335,0.029010076547292405,-0.045403187342833724,0.010373294871769394,0.076389216,-0.1654092,0.02647683,0.016830444
0.0,0.0,0.0,0.09237808,0.005425628,0.99623007,0.9954503,0.023317253,-0.09238523,0.02380041,-0.99971175,0.0031677675,0.0905749049186706,-0.1050062087059021,0.029757177734374807,0.029317900689149298,-0.045701202449649064,0.010470214286082422,0.076389216,-0.1671685,0.02647683,0.01675415
0.0,0.0,0.0,0.09237808,0.005425628,0.99623007,0.9954503,0.023317253,-0.09238523,0.02380041,-0.99971175,0.0031677675,0.06184448499679562,-0.07388158712387086,0.06327600097656116,0.029480533610687528,-0.04584210437302017,0.010734243219534815,0.076389216,-0.1671685,0.02647683,0.016738892
0.0,0.0,0.0,0.09237808,0.005425628,0.99623007,0.9954503,0.023317253,-0.09238523,0.02380041,-0.99971175,0.0031677675,0.0905749049186706,-0.15049604024887084,-0.02291525878906242,0.029786005467227445,-0.046365374052399426,0.010565995709491828,0.076389216,-0.16971059,0.02647683,0.01689148
0.0,0.0,0.0,0.09237808,0.005425628,0.99623007,0.9954503,0.023317253,-0.09238523,0.02380041,-0.99971175,0.0031677675,0.013960451793670559,-0.1145830153465271,0.005815161132812108,0.02970687769885966,-0.04670646225887006,0.010542241536608429,0.076389216,-0.17163382,0.02647683,0.016784668
0.0,0.0,0.0,0.09237808,0.005425628,0.99623007,0.9954503,0.023317253,-0.09238523,0.02380041,-0.99971175,0.0031677675,0.09775750989913934,-0.11697721700668334,-0.0013674438476574124,0.03004713085986106,-0.047057816032609126,0.010482693109687101,0.076389216,-0.17359903,0.02647683,0.016799927
0.0,0.0,0.0,0.09237808,0.005425628,0.99623007,0.9954503,0.023317253,-0.09238523,0.02380041,-0.99971175,0.0031677675,0.1360647364616394,-0.09782360372543335,0.005815161132812108,0.03057721888786995,-0.04731164497107325,0.010459355449802725,0.07867094,-0.17359903,0.02647683,0.01676941
0.0,0.0,0.0,0.09237808,0.005425628,0.99623007,0.9954503,0.023317253,-0.09238523,0.02380041,-0.99971175,0.0031677675,0.0211430567741393,-0.07866999044418335,-0.06361668701172007,0.030530048077301298,-0.047468436698438796,0.01008897523749511,0.07867094,-0.17359903,0.02647683,0.016784668
0.0,0.0,0.0,0.09237808,0.005425628,0.99623007,0.9954503,0.023317253,-0.09238523,0.02380041,-0.99971175,0.0031677675,0.13845893812179555,-0.1145830153465271,-0.049251477050781034,0.03106969252752377,-0.047804009591679235,0.00979227297605373,0.0809907,-0.17551878,0.02647683,0.01675415
0.0,0.0,0.0,0.09237808,0.005425628,0.99623007,0.9954503,0.023317253,-0.09238523,0.02380041,-0.99971175,0.0031677675,0.10494011487960808,-0.08345839376449585,0.015391967773437543,0.031439044639284194,-0.04798228151254332,0.009820271450040649,0.08275529,-0.17551878,0.02647683,0.016815186
0.0,0.0,0.0,0.09237808,0.005425628,0.99623007,0.9954503,0.023317253,-0.09238523,0.02380041,-0.99971175,0.0031677675,0.0857865015983581,-0.14570763692855834,-0.0013674438476574124,0.03171078192407956,-0.0484709082896234,0.00976433287355216,0.08275529,-0.17797333,0.02647683,0.016845703
0.0,0.0,0.0,0.09237808,0.005425628,0.99623007,0.9954503,0.023317253,-0.09238523,0.02380041,-0.99971175,0.0031677675,0.10494011487960808,-0.1145830153465271,0.053699194335937506,0.032076928588857204,-0.04880146882490792,0.009984007180864085,0.084518276,-0.17989832,0.02647683,0.016799927
0.0,0.0,0.0,0.09237808,0.005425628,0.99623007,0.9954503,0.023317253,-0.09238523,0.02380041,-0.99971175,0.0031677675,0.12169952650070193,-0.16007284688949586,-0.0013674438476574124,0.03252504157841642,-0.04935782571523086,0.00992724992572148,0.086560965,-0.18258509,0.02647683,0.016784668
0.0,0.0,0.0,0.09237808,0.005425628,0.99623007,0.9954503,0.023317253,-0.09238523,0.02380041,-0.99971175,0.0031677675,-0.012375766468048166,-0.04993957052230835,-0.0013674438476574124,0.0323005375381841,-0.04936073443926625,0.009870776456854585,0.086560965,-0.18258509,0.02647683,0.016738892
0.0,0.0,0.0,0.09237808,0.005425628,0.99623007,0.9954503,0.023317253,-0.09238523,0.02380041,-0.99971175,0.0031677675,0.11451692152023307,-0.11218881368637085,-0.0013674438476574124,0.032711619458094345,-0.04967487483550177,0.009814585355332025,0.088483095,-0.18446814,0.02647683,0.016784668
0.0,0.0,0.0,0.09237808,0.005425628,0.99623007,0.9954503,0.023317253,-0.09238523,0.02380041,-0.99971175,0.0031677675,-0.021952573108673157,-0.1002178053855896,-0.11868332519531322,0.03243829849526051,-0.04992758948825221,0.009172095802578798,0.088483095,-0.18616402,0.024468472,0.016921997
0.0,0.0,0.0,0.09237808,0.005425628,0.99623007,0.9954503,0.023317253,-0.09238523,0.02380041,-0.99971175,0.0031677675,0.09775750989913934,-0.09064099874496459,0.046516589355467985,0.032764894552279905,-0.05013115653453577,0.009358818270343244,0.088483095,-0.18616402,0.024468472,0.016799927
0.0,0.0,0.0,0.09237808,0.005425628,0.99623007,0.9954503,0.023317253,-0.09238523,0.02380041,-0.99971175,0.0031677675,0.10494011487960808,-0.1241598219871521,-0.010944250488281071,0.033125770653916545,-0.050501299861798854,0.009257302926550123,0.09024288,-0.1882461,0.024468472,0.01676941
0.0,0.0,0.0,0.09237808,0.005425628,0.99623007,0.9954503,0.023317253,-0.09238523,0.02380041,-0.99971175,0.0031677675,0.12648792982101442,-0.1528902419090271,-0.037280468749999685,0.03359258144975204,-0.051013244572034995,0.009024614068167375,0.09244121,-0.19090329,0.024468472,0.01737976
0.0,0.0,0.0,0.09237808,0.005425628,0.99623007,0.9954503,0.023317253,-0.09238523,0.02380041,-0.99971175,0.0031677675,0.059450283336639376,-0.16486125020980835,0.0010267578125002785,0.033721869959186475,-0.05158248460022386,0.00898462478688904,0.09244121,-0.19368301,0.024468472,0.016860962
0.0,0.0,0.0,0.09237808,0.005425628,0.99623007,0.9954503,0.023317253,-0.09238523,0.02380041,-0.99971175,0.0031677675,0.0355082667350769,-0.08345839376449585,0.0010267578125002785,0.03373080194306592,-0.05174186414604522,0.008944835452017097,0.09244121,-0.19368301,0.024468472,0.016784668
0.0,0.0,0.0,0.09237808,0.005425628,0.99623007,0.9954503,0.023317253,-0.09238523,0.02380041,-0.99971175,0.0031677675,0.049873476696014385,-0.08824679708480834,0.0010267578125002785,0.033811515316830666,-0.05192438881073904,0.008905245063819513,0.09244121,-0.19368301,0.024468472,0.016815186
0.0,0.0,0.0,0.09237808,0.005425628,0.99623007,0.9954503,0.023317253,-0.09238523,0.02380041,-0.99971175,0.0031677675,0.07142129163742061,-0.09303520040512084,0.046516589355467985,0.03399956419843361,-0.05212994286871095,0.009093301785277754,0.09244121,-0.19368301,0.024468472,0.01675415
0.0,0.0,0.0,0.09237808,0.005425628,0.99623007,0.9954503,0.023317253,-0.09238523,0.02380041,-0.99971175,0.0031677675,-0.04110618638992314,-0.11697721700668334,-0.02530946044922011,0.03362403544549183,-0.05245417923940081,0.008921287974105265,0.09244121,-0.19564644,0.024468472,0.016784668
0.0,0.0,0.0,0.09237808,0.005425628,0.99623007,0.9954503,0.023317253,-0.09238523,0.02380041,-0.99971175,0.0031677675,0.13845893812179555,-0.1481018385887146,0.022574572753905287,0.03414820995887334,-0.05293241753614737,0.008989554398004265,0.09477998,-0.1981481,0.024468472,0.01689148
0.0,0.0,0.0,0.09237808,0.005425628,0.99623007,0.9954503,0.023317253,-0.09238523,0.02380041,-0.99971175,0.0031677675,0.030719863414764403,-0.08345839376449585,0.003420959472656193,0.0341310682261528,-0.053085047417289116,0.008961711423377526,0.09477998,-0.1981481,0.024468472,0.016799927
0.0,0.0,0.0,0.09237808,0.005425628,0.99623007,0.9954503,0.023317253,-0.09238523,0.02380041,-0.99971175,0.0031677675,0.09296910657882684,-0.0523337721824646,-0.04206887207031329,0.034425258417916174,-0.05308129104111499,0.008706558505909073,0.09477998,-0.1981481,0.024468472,0.01676941
0.0,0.0,0.0,0.09237808,0.005425628,0.99623007,0.9954503,0.023317253,-0.09238523,0.02380041,-0.99971175,0.0031677675,0.05226767835617063,-0.13613083028793332,-0.006155847167969242,0.03451447051760744,-0.05349653873734908,0.008632246477539681,0.09477998,-0.20043509,0.024468472,0.016799927
0.0,0.0,0.0,0.09237808,0.005425628,0.99623007,0.9954503,0.023317253,-0.09238523,0.02380041,-0.99971175,0.0031677675,0.04747927503585814,-0.06430478048324585,0.06327600097656116,0.034579294540198695,-0.053550579946078564,0.008905465250034788,0.09477998,-0.20043509,0.024468472,0.016799927
0.0,0.0,0.0,0.09237808,0.005425628,0.99623007,0.9954503,0.023317253,-0.09238523,0.02380041,-0.99971175,0.0031677675,0.07142129163742061,-0.11937141866683959,-0.02530946044922011,0.0347635045256848,-0.053879684139682374,0.008734390621538513,0.09477998,-0.20244052,0.024468472,0.016799927
0.0,0.0,0.0,0.09237808,0.005425628,0.99623007,0.9954503,0.023317253,-0.09238523,0.02380041,-0.99971175,0.0031677675,0.10972851819992058,-0.09303520040512084,-0.013338452148438762,0.03513832959405598,-0.05407546172100957,0.008624026407688628,0.09662007,-0.20244052,0.024468472,0.01676941
0.0,0.0,0.0,0.09237808,0.005425628,0.99623007,0.9954503,0.023317253,-0.09238523,0.02380041,-0.99971175,0.0031677675,0.05226767835617063,-0.1481018385887146,-0.04206887207031329,0.03522397633786655,-0.054545593605348094,0.008370561915298618,0.09662007,-0.20492409,0.024468472,0.01676941
0.0,0.0,0.0,0.09237808,0.005425628,0.99623007,0.9954503,0.023317253,-0.09238523,0.02380041,-0.99971175,0.0031677675,-0.01716416978836066,-0.0571221755027771,0.022574572753905287,0.03496203560723541,-0.05455847651483524,0.008441581969491652,0.09662007,-0.20492409,0.024468472,0.01675415
0.0,0.0,0.0,0.09237808,0.005425628,0.99623007,0.9954503,0.023317253,-0.09238523,0.02380041,-0.99971175,0.0031677675,0.11451692152023307,-0.08345839376449585,0.003420959472656193,0.035359810036800395,-0.054702976101083545,0.008416478857007475,0.09854919,-0.20492409,0.024468472,0.016845703
0.0,0.0,0.0,0.09237808,0.005425628,0.99623007,0.9954503,0.023317253,-0.09238523,0.02380041,-0.99971175,0.0031677675,0.06902708997726437,-0.12655402364730833,0.015391967773437543,0.03552814643650271,-0.05506223133881467,0.008451356301589625,0.09854919,-0.20705405,0.024468472,0.016830444
0.0,0.0,0.0,0.09237808,0.005425628,0.99623007,0.9954503,0.023317253,-0.09238523,0.02380041,-0.99971175,0.0031677675,0.07381549329757686,-0.1050062087059021,-0.051645678710938725,0.03571958317080808,-0.0553119512256501,0.008150871126526984,0.09854919,-0.20881493,0.024468472,0.01676941
0.0,0.0,0.0,0.09237808,0.005425628,0.99623007,0.9954503,0.023317253,-0.09238523,0.02380041,-0.99971175,0.0031677675,0.06663288831710812,-0.0954294020652771,0.0967948242187493,0.035874149696539584,-0.05551253847984823,0.008594090891988095,0.09854919,-0.20881493,0.024468472,0.01675415
0.0,0.0,0.0,0.09237808,0.005425628,0.99623007,0.9954503,0.023317253,-0.09238523,0.02380041,-0.99971175,0.0031677675,0.09536330823898309,-0.11937141866683959,-0.03488626708984377,0.0361715954892518,-0.05583183288078319,0.008376689102078935,0.09854919,-0.21081308,0.024468472,0.016738892
0.0,0.0,0.0,0.09237808,0.005425628,0.99623007,0.9954503,0.023317253,-0.09238523,0.02380041,-0.99971175,0.0031677675,0.00198944349288932,-0.11697721700668334,0.046516589355467985,0.03600068472926998,-0.05613755980141269,0.008567388603345879,0.09854919,-0.212789,0.024468472,0.01689148
0.0,0.0,0.0,0.09237808,0.005425628,0.99623007,0.9954503,0.023317253,-0.09238523,0.02380041,-0.99971175,0.0031677675,0.13367053480148305,-0.0858525954246521,0.10876583251953065,0.03648903397963105,-0.05628613497952889,0.009068380822926802,0.10080096,-0.212789,0.02630071,0.016845703
0.0,0.0,0.0,0.09237808,0.005425628,0.99623007,0.9954503,0.023317253,-0.09238523,0.02380041,-0.99971175,0.0031677675,0.037902468395233146,-0.09303520040512084,-0.003761645507813327,0.03649610115170906,-0.05646988030665685,0.009004230691273101,0.10080096,-0.212789,0.02630071,0.01676941
0.0,0.0,0.0,0.09237808,0.005425628,0.99623007,0.9954503,0.023317253,-0.09238523,0.02380041,-0.99971175,0.0031677675,0.10254591321945183,-0.10261200704574586,-0.03009786376953194,0.03682635021204777,-0.0567005909403523,0.008808720218969076,0.10258162,-0.2145708,0.02630071,0.017364502
0.0,0.0,0.0,0.09237808,0.005425628,0.99623007,0.9954503,0.023317253,-0.09238523,0.02380041,-0.99971175,0.0031677675,0.04508507337570189,-0.09064099874496459,0.06327600097656116,0.03686764382786604,-0.05687029297937536,0.009081056622757037,0.10258162,-0.2145708,0.02630071,0.01689148
0.0,0.0,0.0,0.09237808,0.005425628,0.99623007,0.9954503,0.023317253,-0.09238523,0.02380041,-0.99971175,0.0031677675,0.12648792982101442,-0.16007284688949586,-0.044463073730469205,0.03731574525783178,-0.05738630574892596,0.008813335970990906,0.10470854,-0.21726246,0.02630071,0.016815186
0.0,0.0,0.0,0.09237808,0.005425628,0.99623007,0.9954503,0.023317253,-0.09238523,0.02380041,-0.99971175,0.0031677675,0.0857865015983581,-0.12176562032699585,-0.03488626708984377,0.03755809903953441,-0.05770820232181631,0.008594837955686732,0.10470854,-0.21930811,0.02630071,0.016799927
0.0,0.0,0.0,0.09237808,0.005425628,0.99623007,0.9954503,0.023317253,-0.09238523,0.02380041,-0.99971175,0.0031677675,0.06663288831710812,-0.11697721700668334,0.003420959472656193,0.037703472985922276,-0.05800454739524064,0.00856896856327158,0.10470854,-0.22126974,0.02630071,0.01676941
0.0,0.0,0.0,0.09237808,0.005425628,0.99623007,0.9954503,0.023317253,-0.09238523,0.02380041,-0.99971175,0.0031677675,0.06902708997726437,-0.12894822530746458,-0.01812685546875059,0.03786009107087898,-0.05835926578480176,0.008435489443111469,0.10470854,-0.22343016,0.02630071,0.01675415
0.0,0.0,0.0,0.09237808,0.005425628,0.99623007,0.9954503,0.023317253,-0.09238523,0.02380041,-0.99971175,0.0031677675,0.12169952650070193,-0.05951637716293335,-0.02291525878906242,0.03827928824802809,-0.05836505134169242,0.008278735701950599,0.10675679,-0.22343016,0.02630071,0.016830444
0.0,0.0,0.0,0.09237808,0.005425628,0.99623007,0.9954503,0.023317253,-0.09238523,0.02380041,-0.99971175,0.0031677675,0.037902468395233146,-0.16007284688949586,0.0010267578125002785,0.03827740414876412,-0.058873590319431436,0.008242475812503348,0.10675679,-0.22611448,0.02630071,0.01676941
0.0,0.0,0.0,0.09237808,0.005425628,0.99623007,0.9954503,0.023317253,-0.09238523,0.02380041,-0.99971175,0.0031677675,0.11691112318038943,-0.05472797384262085,-0.008550048828125156,0.03867057274392225,-0.05885286223704738,0.008158513189300207,0.10871375,-0.22611448,0.02630071,0.016738892
0.0,0.0,0.0,0.09237808,0.005425628,0.99623007,0.9954503,0.023317253,-0.09238523,0.02380041,-0.99971175,0.0031677675,-0.009981564807891918,-0.10261200704574586,0.027362976074218892,0.03842731205616318,-0.05907165796109087,0.0082545355037248,0.10871375,-0.22783835,0.02630071,0.016799927
0.0,0.0,0.0,0.09237808,0.005425628,0.99623007,0.9954503,0.023317253,-0.09238523,0.02380041,-0.99971175,0.0031677675,0.0355082667350769,-0.03078595724105835,-0.0013674438476574124,0.03841271682955775,-0.05893022945749071,0.008206425606967889,0.10871375,-0.22783835,0.02630071,0.016784668
0.0,0.0,0.0,0.09237808,0.005425628,0.99623007,0.9954503,0.023317253,-0.09238523,0.02380041,-0.99971175,0.0031677675,0.037902468395233146,-0.11937141866683959,-0.03009786376953194,0.03841016558738612,-0.05923243540353746,0.00801490416008539,0.10871375,-0.2298456,0.02630071,0.016815186
0.0,0.0,0.0,0.09237808,0.005425628,0.99623007,0.9954503,0.023317253,-0.09238523,0.02380041,-0.99971175,0.0031677675,0.10254591321945183,-0.10740041036605835,-0.06361668701172007,0.038730844325546444,-0.059473275278350064,0.007656746204226362,0.110436514,-0.23164992,0.02630071,0.016799927
0.0,0.0,0.0,0.09237808,0.005425628,0.99623007,0.9954503,0.023317253,-0.09238523,0.02380041,-0.99971175,0.0031677675,0.12648792982101442,-0.13373662862777708,-0.01812685546875059,0.03916962975302379,-0.0598445920450972,0.0075278281958614775,0.11255764,-0.2338926,0.02630071,0.01676941
0.0,0.0,0.0,0.09237808,0.005425628,0.99623007,0.9954503,0.023317253,-0.09238523,0.02380041,-0.99971175,0.0031677675,0.12169952650070193,-0.14570763692855834,-0.013338452148438762,0.03958227923676218,-0.06027390726951451,0.007423496794139977,0.11459661,-0.23633382,0.02630071,0.01675415
0.0,0.0,0.0,0.09237808,0.005425628,0.99623007,0.9954503,0.023317253,-0.09238523,0.02380041,-0.99971175,0.0031677675,0.1408531397819519,-0.10261200704574586,0.020180371093749372,0.040088633539488126,-0.06048559776839567,0.007487281165638023,0.11695434,-0.23805143,0.02630071,0.016738892
0.0,0.0,0.0,0.09237808,0.005425628,0.99623007,0.9954503,0.023317253,-0.09238523,0.02380041,-0.99971175,0.0031677675,0.02353725843429555,-0.13134242696762083,0.06088179931640525,0.040005876663962166,-0.06083988191439179,0.007754253756391859,0.11695434,-0.24026799,0.02630071,0.01687622
0.0,0.0,0.0,0.09237808,0.005425628,0.99623007,0.9954503,0.023317253,-0.09238523,0.02380041,-0.99971175,0.0031677675,0.08818070325851435,-0.14570763692855834,-0.04206887207031329,0.040246750796934926,-0.06126422068946263,0.007505138127258333,0.11695434,-0.24271587,0.02630071,0.016799927
0.0,0.0,0.0,0.09237808,0.005425628,0.99623007,0.9954503,0.023317253,-0.09238523,0.02380041,-0.99971175,0.0031677675,0.037902468395233146,-0.0619105788230896,0.04412238769531207,0.040235029384926416,-0.06126745248013076,0.007688224375098602,0.11695434,-0.24271587,0.02630071,0.01675415
0.0,0.0,0.0,0.09237808,0.005425628,0.99623007,0.9954503,0.023317253,-0.09238523,0.02380041,-0.99971175,0.0031677675,0.0857865015983581,-0.11697721700668334,-0.020521057128906506,0.04046278674599357,-0.061546001302763526,0.007547177967578576,0.11695434,-0.24467573,0.02630071,0.01675415
0.0,0.0,0.0,0.09237808,0.005425628,0.99623007,0.9954503,0.023317253,-0.09238523,0.02380041,-0.99971175,0.0031677675,0.0067778468132018155,-0.1002178053855896,-0.003761645507813327,0.040294362046329614,-0.06173936032317766,0.007490633850201616,0.11695434,-0.24635325,0.02630071,0.016738892
0.0,0.0,0.0,0.09237808,0.005425628,0.99623007,0.9954503,0.023317253,-0.09238523,0.02380041,-0.99971175,0.0031677675,0.09536330823898309,-0.06430478048324585,0.022574572753905287,0.04056970677729288,-0.061752187423978,0.007566053544720134,0.11695434,-0.24635325,0.02630071,0.016830444
0.0,0.0,0.0,0.09237808,0.005425628,0.99623007,0.9954503,0.023317253,-0.09238523,0.02380041,-0.99971175,0.0031677675,0.07860389661788936,-0.12176562032699585,0.015391967773437543,0.04075987772649586,-0.06205225458849309,0.007605183115863721,0.11695434,-0.24840634,0.02630071,0.016860962
0.0,0.0,0.0,0.09237808,0.005425628,0.99623007,0.9954503,0.023317253,-0.09238523,0.02380041,-0.99971175,0.0031677675,0.11930532484054557,-0.12894822530746458,-0.061222485351562383,0.04115260496206612,-0.06238673444208794,0.00726104477352659,0.11895502,-0.25056872,0.02630071,0.01676941
0.0,0.0,0.0,0.09237808,0.005425628,0.99623007,0.9954503,0.023317253,-0.09238523,0.02380041,-0.99971175,0.0031677675,-0.021952573108673157,-0.08345839376449585,-0.06361668701172007,0.04083707907171242,-0.06249209273869998,0.006906656114600357,0.11895502,-0.25056872,0.02630071,0.01737976
0.0,0.0,0.0,0.09237808,0.005425628,0.99623007,0.9954503,0.023317253,-0.09238523,0.02380041,-0.99971175,0.0031677675,0.11930532484054557,-0.0523337721824646,0.008209362792968022,0.04122942030055659,-0.0624413011359188,0.006913169647992195,0.120970264,-0.25056872,0.02630071,0.01689148
0.0,0.0,0.0,0.09237808,0.005425628,0.99623007,0.9954503,0.023317253,-0.09238523,0.02380041,-0.99971175,0.0031677675,-0.04110618638992314,-0.09064099874496459,0.0010267578125002785,0.04081774226710419,-0.06258229962396403,0.006883737588814735,0.120970264,-0.25056872,0.02630071,0.016815186
0.0,0.0,0.0,0.09237808,0.005425628,0.99623007,0.9954503,0.023317253,-0.09238523,0.02380041,-0.99971175,0.0031677675,0.10015171155929559,-0.09782360372543335,0.010603564453123937,0.041114412113565146,-0.06275850614447137,0.006902336723136281,0.12264669,-0.25056872,0.02630071,0.016738892
0.0,0.0,0.0,0.09237808,0.005425628,0.99623007,0.9954503,0.023317253,-0.09238523,0.02380041,-0.99971175,0.0031677675,-0.012375766468048166,-0.14570763692855834,-0.0684050903320319,0.040846961220657084,-0.06317325179839181,0.00652579958786044,0.12264669,-0.25301215,0.02630071,0.01676941
0.0,0.0,0.0,0.09237808,0.005425628,0.99623007,0.9954503,0.023317253,-0.09238523,0.02380041,-0.99971175,0.0031677675,0.059450283336639376,-0.0762757887840271,0.06806440429687477,0.040939977831237,-0.06323876448331998,0.006833492611405511,0.12264669,-0.25301215,0.02630071,0.016784668
0.0,0.0,0.0,0.09237808,0.005425628,0.99623007,0.9954503,0.023317253,-0.09238523,0.02380041,-0.99971175,0.0031677675,0.11451692152023307,-0.16486125020980835,-0.013338452148438762,0.04130786254968198,-0.06374687691195242,0.00673263288760629,0.124572314,-0.25578433,0.02630071,0.016815186
0.0,0.0,0.0,0.09237808,0.005425628,0.99623007,0.9954503,0.023317253,-0.09238523,0.02380041,-0.99971175,0.0031677675,0.10494011487960808,-0.1433134352684021,-0.039674670410157375,0.04162602381133161,-0.06414470970373468,0.006500596371117472,0.12633531,-0.258192,0.02630071,0.016799927
0.0,0.0,0.0,0.09237808,0.005425628,0.99623007,0.9954503,0.023317253,-0.09238523,0.02380041,-0.99971175,0.0031677675,0.09296910657882684,-0.0762757887840271,-0.02291525878906242,0.04188273922516909,-0.06420536509913614,0.006353517095316572,0.12633531,-0.258192,0.02630071,0.016738892
0.0,0.0,0.0,0.09237808,0.005425628,0.99623007,0.9954503,0.023317253,-0.09238523,0.02380041,-0.99971175,0.0031677675,0.11451692152023307,-0.05951637716293335,0.03215137939453072,0.04224591013664441,-0.06418192015945512,0.0064825064068126425,0.1282522,-0.258192,0.02630071,0.016738892
0.0,0.0,0.0,0.09237808,0.005425628,0.99623007,0.9954503,0.023317253,-0.09238523,0.02380041,-0.99971175,0.0031677675,0.06423868665695187,-0.11697721700668334,-0.006155847167969242,0.04235587401924595,-0.06444589664369126,0.006419314638938733,0.1282522,-0.26015365,0.02630071,0.01676941
0.0,0.0,0.0,0.09237808,0.005425628,0.99623007,0.9954503,0.023317253,-0.09238523,0.02380041,-0.99971175,0.0031677675,0.03311406507492065,-0.06430478048324585,-0.006155847167969242,0.042309664974524326,-0.06444519106288903,0.006356438829904194,0.1282522,-0.26015365,0.02630071,0.016860962
0.0,0.0,0.0,0.09237808,0.005425628,0.99623007,0.9954503,0.023317253,-0.09238523,0.02380041,-0.99971175,0.0031677675,0.04747927503585814,-0.1433134352684021,0.08003541259765612,0.042335513024831,-0.06483953228391659,0.006724833698742953,0.1282522,-0.2625635,0.02630071,0.016815186
0.0,0.0,0.0,0.09237808,0.005425628,0.99623007,0.9954503,0.023317253,-0.09238523,0.02380041,-0.99971175,0.0031677675,0.05226767835617063,-0.0571221755027771,0.008209362792968022,0.04238517385148769,-0.06480094550001089,0.006732256344214078,0.1282522,-0.2625635,0.02630071,0.016723633
0.0,0.0,0.0,0.09237808,0.005425628,0.99623007,0.9954503,0.023317253,-0.09238523,0.02380041,-0.99971175,0.0031677675,0.05705608167648313,-0.10740041036605835,-0.03009786376953194,0.04245852839061267,-0.06501394282434114,0.006548105743645349,0.1282522,-0.26479718,0.02630071,0.02079773
0.0,0.0,0.0,0.09237808,0.005425628,0.99623007,0.9954503,0.023317253,-0.09238523,0.02380041,-0.99971175,0.0031677675,0.12169952650070193,-0.0475453688621521,-0.0923471069335946,0.042854733381163114,-0.06492659995453019,0.006053629680259149,0.1303543,-0.26479718,0.02630071,0.01727295
0.0,0.0,0.0,0.09237808,0.005425628,0.99623007,0.9954503,0.023317253,-0.09238523,0.02380041,-0.99971175,0.0031677675,0.06663288831710812,-0.08824679708480834,0.07045860595703068,0.04297362415584284,-0.0650432009401816,0.006375654561643007,0.1303543,-0.26479718,0.02630071,0.016983032
0.0,0.0,0.0,0.09237808,0.005425628,0.99623007,0.9954503,0.023317253,-0.09238523,0.02380041,-0.99971175,0.0031677675,0.1552183497428894,-0.10261200704574586,0.034545581054686636,0.04353484778377807,-0.06523104497070942,0.006516504194108225,0.13293591,-0.26650384,0.02630071,0.01663208
0.0,0.0,0.0,0.09237808,0.005425628,0.99623007,0.9954503,0.023317253,-0.09238523,0.02380041,-0.99971175,0.0031677675,0.03311406507492065,-0.11697721700668334,-0.06601088867187599,0.043482743870233785,-0.06548977583088929,0.006153867229778304,0.13293591,-0.26847082,0.02630071,0.016815186
0.0,0.0,0.0,0.09237808,0.005425628,0.99623007,0.9954503,0.023317253,-0.09238523,0.02380041,-0.99971175,0.0031677675,0.12169952650070193,-0.0954294020652771,0.0728528076171866,0.043873827783386124,-0.06563947396206123,0.006487361931715346,0.13498417,-0.26847082,0.02630071,0.016830444
0.0,0.0,0.0,0.09237808,0.005425628,0.99623007,0.9954503,0.023317253,-0.09238523,0.02380041,-0.99971175,0.0031677675,0.07142129163742061,-0.11937141866683959,0.046516589355467985,0.044011565102656296,-0.06590813368558511,0.006687508068834109,0.13498417,-0.2704817,0.02630071,0.016845703
0.0,0.0,0.0,0.09237808,0.005425628,0.99623007,0.9954503,0.023317253,-0.09238523,0.02380041,-0.99971175,0.0031677675,0.11212271986007694,-0.0619105788230896,0.015391967773437543,0.0443521208764434,-0.06588814591127264,0.006731030367357127,0.13687123,-0.2704817,0.02630071,0.016830444
0.0,0.0,0.0,0.09237808,0.005425628,0.99623007,0.9954503,0.023317253,-0.09238523,0.02380041,-0.99971175,0.0031677675,0.00198944349288932,-0.12176562032699585,0.0010267578125002785,0.044140307489525625,-0.06616753328335126,0.0067025090045828425,0.13687123,-0.27256453,0.02630071,0.017105103
0.0,0.0,0.0,0.09237808,0.005425628,0.99623007,0.9954503,0.023317253,-0.09238523,0.02380041,-0.99971175,0.0031677675,-0.043500388050079386,-0.1241598219871521,0.08721801757812386,0.04370210401182759,-0.06645749472687026,0.007105086547450548,0.13687123,-0.27476975,0.02630071,0.01776123
0.0,0.0,0.0,0.09237808,0.005425628,0.99623007,0.9954503,0.023317253,-0.09238523,0.02380041,-0.99971175,0.0031677675,0.04269087171554564,-0.0714873854637146,0.027362976074218892,0.04369704785034618,-0.06648264418055448,0.007206375995084389,0.13687123,-0.27476975,0.02630071,0.01727295
0.0,0.0,0.0,0.09237808,0.005425628,0.99623007,0.9954503,0.023317253,-0.09238523,0.02380041,-0.99971175,0.0031677675,0.013960451793670559,-0.14570763692855834,0.06806440429687477,0.0435483648700628,-0.0668787691442945,0.007510666136593341,0.13687123,-0.27726433,0.02630071,0.017120361
0.0,0.0,0.0,0.09237808,0.005425628,0.99623007,0.9954503,0.023317253,-0.09238523,0.02380041,-0.99971175,0.0031677675,0.04747927503585814,-0.09303520040512084,-0.008550048828125156,0.04356801942089177,-0.06700955130059863,0.007430362561769749,0.13687123,-0.27726433,0.02630071,0.017196655
0.0,0.0,0.0,0.09237808,0.005425628,0.99623007,0.9954503,0.023317253,-0.09238523,0.02380041,-0.99971175,0.0031677675,0.0857865015983581,-0.21513948507308958,-0.04685727539062512,0.0437791118317791,-0.06775020096946109,0.007158924372007774,0.13687123,-0.2809673,0.02630071,0.017211914
0.0,0.0,-0.05764783,0.09237272,0.0055168816,0.99623007,0.99542683,0.024300579,-0.09238519,0.024787942,-0.9996877,0.0031677657,0.01640633068084707,-0.3860080070853233,0.09200642089843747,0.04364224792602444,-0.0693414900000404,0.007583161854639923,0.13687123,-0.28758177,0.02630071,0.01713562
0.0,0.0,-0.11200617,0.09236215,0.005693856,0.99623007,0.9953785,0.026207648,-0.092385024,0.026703171,-0.9996384,0.00316776,0.06918075075149532,0.03605865071415901,0.06806440429687477,0.04376994044015179,-0.0688144892964694,0.007885568066851097,0.13687123,-0.28758177,0.02630071,0.017105103
0.0,-0.058896203,0.0,0.09336757,0.005693856,0.99613684,0.9952847,0.026207633,-0.09338953,0.026706368,-0.9996384,0.0031408106,0.061877038288116415,0.2611136067688465,0.1958564071655271,0.043860475929391615,-0.06716484881614282,0.008825422262344477,0.13687123,-0.28310743,0.029656831,0.01713562
0.0,-0.076216266,0.0,0.09466969,0.005693856,0.9960148,0.9951618,0.026207611,-0.094690464,0.026710473,-0.9996384,0.0031059007,0.18818090343475324,0.17252814534306524,-0.12378978118896455,0.044582078066918426,-0.06596638384534678,0.008162346245087933,0.1400987,-0.28014842,0.027533727,0.017150879
0.0,0.0,0.07331848,0.09467683,0.005575129,0.9960148,0.9951939,0.02495954,-0.0946904,0.025456788,-0.99967116,0.0031058984,0.08516138868331902,-0.2405235391974449,-0.4446128036499033,0.04478497462000043,-0.06683916962210727,0.005898470495612977,0.1400987,-0.2842626,0.019928578,0.017105103
0.0,0.0,0.05200148,0.094681814,0.005490464,0.9960148,0.9952157,0.024069576,-0.09469035,0.024562819,-0.99969345,0.003105897,-0.02262578697204598,0.023655290383100505,-0.0040796981811528354,0.0444479208120402,-0.06638669732208123,0.005848579652229148,0.1400987,-0.2842626,0.019928578,0.017196655
0.0,0.0,0.055731956,0.0946871,0.0053993985,0.9960148,0.9952385,0.023112364,-0.094690315,0.0236013,-0.9997167,0.0031058958,-0.07774338712692264,0.0005916637063026406,-0.01365650482177827,0.04383696427234538,-0.0660518055169393,0.005751054229859111,0.1400987,-0.2842626,0.019928578,0.01725769
0.0,0.0,0.0,0.0946871,0.0053993985,0.9960148,0.9952385,0.023112364,-0.094690315,0.0236013,-0.9997167,0.0031058958,0.11139854402542104,-0.22925169566869735,0.24970567779540964,0.04417477217111076,-0.06686780496769809,0.006970827347686863,0.14200589,-0.28818747,0.02420363,0.017120361
-0.062951766,0.0,0.0,0.0946871,0.00432785,0.99602056,0.9952385,0.023214236,-0.09466545,0.023601284,-0.99971944,0.0020303635,0.10661014070510855,0.20006938671469687,0.33584162445068344,0.044486949013780745,-0.06553311900928611,0.008615181333201846,0.14382784,-0.2847683,0.02994311,0.017089844
-0.05335912,-0.0716864,0.05186825,0.09591882,0.0033294458,0.9959078,0.9951414,0.022413364,-0.09587094,0.02271206,-0.9997415,0.0010839268,0.15458442678451534,0.14745041385293006,-0.11318014526367293,0.04503743640263442,-0.06446820134497502,0.008006204700217472,0.14648618,-0.28223267,0.02799679,0.017196655
0.0,0.0,0.058796268,0.09592218,0.0032327205,0.9959078,0.9951635,0.021409847,-0.0958709,0.0217039,-0.9997639,0.0010839263,0.3221461180686951,-0.2873613079667091,-0.21134241333007786,0.04642297981096472,-0.0655826668780837,0.006909461610065995,0.15201126,-0.28716117,0.024372082,0.017150879
0.0,0.0,0.0,0.09592218,0.0032327205,0.9959078,0.99516356,0.021409849,-0.095870905,0.0217039,-0.9997639,0.0010839263,0.3029925047874451,-0.36636996275186534,0.35129497680664024,0.04770582743584713,-0.0670866033574526,0.008631389186048865,0.15720323,-0.29343915,0.03039174,0.01713562
0.0,0.0,0.0,0.09592218,0.0032327205,0.9959078,0.99516356,0.021409849,-0.095870905,0.0217039,-0.9997639,0.0010839263,0.051601330471038764,-0.37355256773233414,-0.04135409545898483,0.04772530495102309,-0.06861893317932702,0.008381461762823696,0.15720323,-0.2997775,0.03039174,0.016967773
0.057622503,0.1087087,-0.08722517,0.094085366,0.0043454017,0.9960811,0.9953057,0.022785192,-0.09406086,0.023177544,-0.99972916,0.0020987063,0.11241426219940176,-0.45371696232557296,-0.2992064178466798,0.04804874973726499,-0.07054442332505825,0.006843522364776178,0.1591055,-0.3074553,0.02532857,0.016921997
0.0,0.17972094,-0.09428643,0.09105733,0.0044951104,0.9963665,0.9955489,0.02436878,-0.09104156,0.024761915,-0.99969107,0.0021690014,0.1511984772682189,-0.24447125423550606,-0.11999939575195384,0.04856449837491976,-0.0714140574796105,0.0062093077741925285,0.16165715,-0.31158105,0.023303432,0.01687622
-0.0963928,0.24846826,-0.06271062,0.086893514,0.0029775342,0.9967539,0.9958938,0.025564812,-0.0868456,0.025806027,-0.9996668,0.0006534709,0.15784239616394036,-0.08378692765235901,0.14920309753417982,0.04911088786386486,-0.07147592183047424,0.006924276722992465,0.16430889,-0.31158105,0.025810033,0.016799927
-0.07987213,0.26365662,0.0,0.08248249,0.0016412588,0.9971424,0.99626815,0.025680983,-0.08240328,0.025803111,-0.99966687,-0.00057250744,0.1764476651191711,-0.11159909544885158,0.3824820755004872,0.04974757175014139,-0.07167653769856613,0.008802065716879939,0.16727051,-0.3134542,0.032229867,0.016784668
0.0,0.2691191,0.0,0.07793328,0.0016412588,0.99751866,0.99663377,0.025680717,-0.077857256,0.025805723,-0.99966687,-0.0004547873,0.08146407384872434,0.19246451539099216,0.36927558441162134,0.04990615426063431,-0.07035583243311834,0.010604433310353645,0.16727051,-0.31019145,0.038490016,0.016952515
0.0,0.277113,0.0,0.07311642,0.0016412588,0.997895,0.99699813,0.025680417,-0.07304381,0.025807919,-0.99966687,-0.00033017554,0.18299253263473503,-0.22652077513635158,0.4063463745117186,0.05057158615250481,-0.0711366571466345,0.01258314301636047,0.17045926,-0.3141387,0.04557082,0.017425537
-0.05402527,0.262724,0.0,0.06869597,0.00073225825,0.9982204,0.9973117,0.025746698,-0.06860325,0.025809372,-0.9996662,-0.0011264663,0.08916122064590448,-0.2560600886031985,0.5324947219848628,0.050764534324971806,-0.07206127430391733,0.015182700911202981,0.17045926,-0.31845614,0.054549195,0.016860962
-0.05908806,0.21542692,-0.050053652,0.06508592,-0.00020003639,0.99846953,0.9975311,0.026652424,-0.06497111,0.02665328,-0.99964267,-0.002024584,-0.06755358066558836,-0.26622110244464126,0.6976855789184562,0.050172943750019,-0.07303207344462095,0.018595215301239247,0.17045926,-0.32292458,0.066259615,0.016784668
