GyroX,GyroY,GyroZ,ExpGravityX,ExpGravityY,ExpGravityZ,ExpOxX,ExpOxY,ExpOxZ,ExpOyX,ExpOyY,ExpOyZ,AccX,AccY,AccZ,ExpSpeedX,ExpSpeedY,ExpSpeedZ,dT
0.0,0.0,0.0,0.10529644,-0.022841565,0.9941785,0.994441,0.002418581,-0.105268665,2.3283064e-10,-0.99973625,-0.022969257,-0.05446809196472169,0.025594034123420734,0.02398943328857328,0.0,0.0,0.0,0.0045166016
0.0,0.0,0.0,0.10529644,-0.022841565,0.9941785,0.994441,0.002418581,-0.105268665,2.3283064e-10,-0.99973625,-0.022969257,0.02214636116027824,-0.0007421841382980188,0.026383634948729195,0.0,0.0,0.0,0.025878906
0.0,0.0,0.0,0.10529644,-0.022841565,0.9941785,0.994441,0.002418581,-0.105268665,2.3283064e-10,-0.99973625,-0.022969257,0.06045358772277831,0.02798823578357698,0.021595231628417366,0.0,0.0,0.0,0.025878906
0.0,0.0,0.0,0.10529644,-0.022841565,0.9941785,0.994441,0.002418581,-0.105268665,2.3283064e-10,-0.99973625,-0.022969257,-0.004189857101440486,0.05911285736560823,0.01920102996826145,0.0,0.0,0.0,0.025817871
0.0,0.0,0.0,0.10529644,-0.022841565,0.9941785,0.994441,0.002418581,-0.105268665,2.3283064e-10,-0.99973625,-0.022969257,0.012569554519653248,0.05671865570545198,-0.011923591613770768,0.0,0.0,0.0,0.025756836
0.0,0.0,0.0,0.10529644,-0.022841565,0.9941785,0.994441,0.002418581,-0.105268665,2.3283064e-10,-0.99973625,-0.022969257,0.036511571121215725,-0.04623201568126678,0.06947926483154276,0.0,0.0,0.0,0.025756836
0.0,0.0,0.0,0.10529644,-0.022841565,0.9941785,0.994441,0.002418581,-0.105268665,2.3283064e-10,-0.99973625,-0.022969257,-0.004189857101440486,0.04235344574451447,0.04314304656982415,0.0,0.0,0.0,0.025756836
0.0,0.0,0.0,0.10529644,-0.022841565,0.9941785,0.994441,0.002418581,-0.105268665,2.3283064e-10,-0.99973625,-0.022969257,0.03411736946105948,-0.012713192439079285,0.03596044158935463,0.0,0.0,0.0,0.025878906
0.0,0.0,0.0,0.10529644,-0.022841565,0.9941785,0.994441,0.002418581,-0.105268665,2.3283064e-10,-0.99973625,-0.022969257,0.012569554519653248,0.044747647404670715,-0.016711994934082597,0.0,0.0,0.0,0.025817871
0.0,0.0,0.0,0.10529644,-0.022841565,0.9941785,0.994441,0.002418581,-0.105268665,2.3283064e-10,-0.99973625,-0.022969257,-0.08319851188659677,-0.031866805720329267,0.07187346649169868,0.0,0.0,0.0,0.025878906
0.0,0.0,0.0,0.10529644,-0.022841565,0.9941785,0.994441,0.002418581,-0.105268665,2.3283064e-10,-0.99973625,-0.022969257,-0.03292027702331546,0.02798823578357698,0.028777836608886886,0.0,0.0,0.0,0.025756836
0.0,0.0,0.0,0.10529644,-0.022841565,0.9941785,0.994441,0.002418581,-0.105268665,2.3283064e-10,-0.99973625,-0.022969257,-0.028131873703002963,0.001652017521858229,-0.04783661651611304,0.0,0.0,0.0,0.026123047
0.0,0.0,0.0,0.10529644,-0.022841565,0.9941785,0.994441,0.002418581,-0.105268665,2.3283064e-10,-0.99973625,-0.022969257,-0.05207389030456544,0.001652017521858229,-0.004740986633301247,0.0,0.0,0.0,0.025817871
0.0,0.0,0.0,0.10529644,-0.022841565,0.9941785,0.994441,0.002418581,-0.105268665,2.3283064e-10,-0.99973625,-0.022969257,0.005386949539184505,0.013623025822639467,-0.03586560821533169,0.0,0.0,0.0,0.025817871
0.0,0.0,0.0,0.10529644,-0.022841565,0.9941785,0.994441,0.002418581,-0.105268665,2.3283064e-10,-0.99973625,-0.022969257,-0.025737672042846715,0.07587226898670198,0.04314304656982415,0.0,0.0,0.0,0.025756836
0.0,0.0,0.0,0.10529644,-0.022841565,0.9941785,0.994441,0.002418581,-0.105268665,2.3283064e-10,-0.99973625,-0.022969257,0.04129997444152822,-0.007924789118766762,0.06708506317138685,0.0,0.0,0.0,0.025756836
0.0,0.0,0.0,0.10529644,-0.022841565,0.9941785,0.994441,0.002418581,-0.105268665,2.3283064e-10,-0.99973625,-0.022969257,0.03411736946105948,0.013623025822639467,-0.023894599914552117,0.0,0.0,0.0,0.025756836
0.0,0.0,0.0,0.10529644,-0.022841565,0.9941785,0.994441,0.002418581,-0.105268665,2.3283064e-10,-0.99973625,-0.022969257,-0.0401028820037842,0.023199832463264486,0.09581548309326138,0.0,0.0,0.0,0.025756836
0.0,0.0,0.0,0.10529644,-0.022841565,0.9941785,0.994441,0.002418581,-0.105268665,2.3283064e-10,-0.99973625,-0.022969257,-0.05446809196472169,0.016017227482795715,0.0790560714721682,0.0,0.0,0.0,0.025817871
0.0,0.0,0.0,0.10529644,-0.022841565,0.9941785,0.994441,0.002418581,-0.105268665,2.3283064e-10,-0.99973625,-0.022969257,-0.023343470382690468,0.03038243744373323,-0.016711994934082597,0.0,0.0,0.0,0.025817871
0.0,0.0,0.0,0.10529644,-0.022841565,0.9941785,0.994441,0.002418581,-0.105268665,2.3283064e-10,-0.99973625,-0.022969257,0.05087678108215332,-0.05580882232189177,0.05990245819091733,0.0,0.0,0.0,0.025817871
0.0,0.0,0.0,0.10529644,-0.022841565,0.9941785,0.994441,0.002418581,-0.105268665,2.3283064e-10,-0.99973625,-0.022969257,-0.06404489860534668,0.023199832463264486,0.033566239929198716,0.0,0.0,0.0,0.025756836
0.0,0.0,0.0,0.10529644,-0.022841565,0.9941785,0.994441,0.002418581,-0.105268665,2.3283064e-10,-0.99973625,-0.022969257,-0.01137246208190923,0.044747647404670715,4.741668701058188e-05,0.0,0.0,0.0,0.025878906
0.0,0.0,0.0,0.10529644,-0.022841565,0.9941785,0.994441,0.002418581,-0.105268665,2.3283064e-10,-0.99973625,-0.022969257,-0.047285486984252945,-0.031866805720329267,0.0742676681518546,0.0,0.0,0.0,0.025878906
0.0,0.0,0.0,0.10529644,-0.022841565,0.9941785,0.994441,0.002418581,-0.105268665,2.3283064e-10,-0.99973625,-0.022969257,-0.023343470382690468,0.008834622502326972,-0.03586560821533169,0.0,0.0,0.0,0.025878906
0.0,0.0,0.0,0.10529644,-0.022841565,0.9941785,0.994441,0.002418581,-0.105268665,2.3283064e-10,-0.99973625,-0.022969257,-0.056862293624877935,-0.0031363857984542665,-0.06938443145751982,0.0,0.0,0.0,0.025817871
0.0,0.0,0.0,0.10529644,-0.022841565,0.9941785,0.994441,0.002418581,-0.105268665,2.3283064e-10,-0.99973625,-0.022969257,0.036511571121215725,-0.04623201568126678,0.05990245819091733,0.0,0.0,0.0,0.025817871
0.0,0.0,0.0,0.10529644,-0.022841565,0.9941785,0.994441,0.002418581,-0.105268665,2.3283064e-10,-0.99973625,-0.022969257,0.036511571121215725,-0.0007421841382980188,0.08623867645263594,0.0,0.0,0.0,0.025878906
0.0,0.0,0.0,0.10529644,-0.022841565,0.9941785,0.994441,0.002418581,-0.105268665,2.3283064e-10,-0.99973625,-0.022969257,0.0005985462188720092,0.025594034123420734,-0.009529389953613077,0.0,0.0,0.0,0.026062012
0.0,0.0,0.0,0.10529644,-0.022841565,0.9941785,0.994441,0.002418581,-0.105268665,2.3283064e-10,-0.99973625,-0.022969257,-0.0448912853240967,-0.019895797419548028,0.009624223327636017,0.0,0.0,0.0,0.025878906
0.0,0.0,0.0,0.10529644,-0.022841565,0.9941785,0.994441,0.002418581,-0.105268665,2.3283064e-10,-0.99973625,-0.022969257,0.005386949539184505,0.020805630803108238,-0.02628880157470803,0.0,0.0,0.0,0.026062012
0.0,0.0,0.0,0.10529644,-0.022841565,0.9941785,0.994441,0.002418581,-0.105268665,2.3283064e-10,-0.99973625,-0.022969257,0.017357957839965743,-0.01031899077892301,-0.0023467849731453327,0.0,0.0,0.0,0.026245117
0.0,0.0,0.0,0.10529644,-0.022841565,0.9941785,0.994441,0.002418581,-0.105268665,2.3283064e-10,-0.99973625,-0.022969257,-0.037708680343627954,0.001652017521858229,0.009624223327636017,0.0,0.0,0.0,0.026184082
0.0,0.0,0.0,0.10529644,-0.022841565,0.9941785,0.994441,0.002418581,-0.105268665,2.3283064e-10,-0.99973625,-0.022969257,0.024540562820434486,0.044747647404670715,0.04793144989013598,0.0,0.0,0.0,0.026000977
0.0,0.0,0.0,0.10529644,-0.022841565,0.9941785,0.994441,0.002418581,-0.105268665,2.3283064e-10,-0.99973625,-0.022969257,0.02932896614074698,0.03756504242420197,-0.09093224639892661,0.0,0.0,0.0,0.026245117
0.0,0.0,0.0,0.10529644,-0.022841565,0.9941785,0.994441,0.002418581,-0.105268665,2.3283064e-10,-0.99973625,-0.022969257,0.03172316780090323,0.01122882416248322,0.06947926483154276,0.0,0.0,0.0,0.026000977
0.0,0.0,0.0,0.10529644,-0.022841565,0.9941785,0.994441,0.002418581,-0.105268665,2.3283064e-10,-0.99973625,-0.022969257,0.0005985462188720092,0.035170840764045724,0.002441618347168273,0.0,0.0,0.0,0.026000977
0.0,0.0,0.0,0.10529644,-0.022841565,0.9941785,0.994441,0.002418581,-0.105268665,2.3283064e-10,-0.99973625,-0.022969257,-0.03292027702331546,-0.019895797419548028,0.03596044158935463,0.0,0.0,0.0,0.025878906
0.0,0.0,0.0,0.10529644,-0.022841565,0.9941785,0.994441,0.002418581,-0.105268665,2.3283064e-10,-0.99973625,-0.022969257,-0.06643910026550293,0.03038243744373323,-0.01910619659423851,0.0,0.0,0.0,0.025939941
0.0,0.0,0.0,0.10529644,-0.022841565,0.9941785,0.994441,0.002418581,-0.105268665,2.3283064e-10,-0.99973625,-0.022969257,-0.06165069694519043,0.018411429142951963,0.038354643249510545,0.0,0.0,0.0,0.025939941
0.0,0.0,0.0,0.10529644,-0.022841565,0.9941785,0.994441,0.002418581,-0.105268665,2.3283064e-10,-0.99973625,-0.022969257,0.0700303943634033,0.01122882416248322,0.050325651550291894,0.0,0.0,0.0,0.025939941
0.0,0.0,0.0,0.10529644,-0.022841565,0.9941785,0.994441,0.002418581,-0.105268665,2.3283064e-10,-0.99973625,-0.022969257,-0.0401028820037842,0.02798823578357698,-0.016711994934082597,0.0,0.0,0.0,0.025756836
0.0,0.0,0.0,0.10529644,-0.022841565,0.9941785,0.994441,0.002418581,-0.105268665,2.3283064e-10,-0.99973625,-0.022969257,0.04369417610168447,0.008834622502326972,-0.086143843078613,0.0,0.0,0.0,0.026000977
0.0,0.0,0.0,0.10529644,-0.022841565,0.9941785,0.994441,0.002418581,-0.105268665,2.3283064e-10,-0.99973625,-0.022969257,0.09636661262512203,-0.05820302398204802,0.04793144989013598,0.0,0.0,0.0,0.025939941
0.0,0.0,0.0,0.10529644,-0.022841565,0.9941785,0.994441,0.002418581,-0.105268665,2.3283064e-10,-0.99973625,-0.022969257,0.06763619270324706,-0.03904941070079801,0.045537248229980065,0.0,0.0,0.0,0.025939941
0.0,0.0,0.0,0.10529644,-0.022841565,0.9941785,0.994441,0.002418581,-0.105268665,2.3283064e-10,-0.99973625,-0.022969257,-0.016160865402221725,-0.031866805720329267,0.052719853210449585,0.0,0.0,0.0,0.026000977
0.0,0.0,0.0,0.10529644,-0.022841565,0.9941785,0.994441,0.002418581,-0.105268665,2.3283064e-10,-0.99973625,-0.022969257,0.010175352859497,-0.02707840240001677,-0.009529389953613077,0.0,0.0,0.0,0.025939941
0.0,0.0,0.0,0.10529644,-0.022841565,0.9941785,0.994441,0.002418581,-0.105268665,2.3283064e-10,-0.99973625,-0.022969257,-0.013766663742065477,-0.024684200739860523,0.012018424987791931,0.0,0.0,0.0,0.025878906
0.0,0.0,0.0,0.10529644,-0.022841565,0.9941785,0.994441,0.002418581,-0.105268665,2.3283064e-10,-0.99973625,-0.022969257,-0.0401028820037842,-0.09651025054454804,0.007230021667480102,0.0,0.0,0.0,0.025939941
0.0,0.0,0.0,0.10529644,-0.022841565,0.9941785,0.994441,0.002418581,-0.105268665,2.3283064e-10,-0.99973625,-0.022969257,0.017357957839965743,0.008834622502326972,0.04793144989013598,0.0,0.0,0.0,0.025939941
0.0,0.0,0.0,0.10529644,-0.022841565,0.9941785,0.994441,0.002418581,-0.105268665,2.3283064e-10,-0.99973625,-0.022969257,0.058059386062622065,0.025594034123420734,-0.03107720489501986,0.0,0.0,0.0,0.025939941
0.0,0.0,0.0,0.10529644,-0.022841565,0.9941785,0.994441,0.002418581,-0.105268665,2.3283064e-10,-0.99973625,-0.022969257,-0.03292027702331546,-0.053414620661735523,-0.05023081817627073,0.0,0.0,0.0,0.025878906
0.0,0.0,0.0,0.10529644,-0.022841565,0.9941785,0.994441,0.002418581,-0.105268665,2.3283064e-10,-0.99973625,-0.022969257,-0.016160865402221725,0.013623025822639467,0.0048358200073241875,0.0,0.0,0.0,0.025939941
0.0,0.0,0.0,0.10529644,-0.022841565,0.9941785,0.994441,0.002418581,-0.105268665,2.3283064e-10,-0.99973625,-0.022969257,-0.0017956554412842385,0.09742008392810822,-0.03586560821533169,0.0,0.0,0.0,0.026000977
0.0,0.0,0.0,0.10529644,-0.022841565,0.9941785,0.994441,0.002418581,-0.105268665,2.3283064e-10,-0.99973625,-0.022969257,0.02932896614074698,0.04953605072498321,0.13172850799560543,0.0,0.0,0.0033156935,0.025939941
0.0,0.0,0.0,0.10529644,-0.022841565,0.9941785,0.994441,0.002418581,-0.105268665,2.3283064e-10,-0.99973625,-0.022969257,0.014963756179809495,0.054324454045295734,-0.016711994934082597,0.0,0.0,0.0033156935,0.026000977
0.0,0.0,0.0,0.10529644,-0.022841565,0.9941785,0.994441,0.002418581,-0.105268665,2.3283064e-10,-0.99973625,-0.022969257,0.002992747879028257,-0.06059722564220427,0.007230021667480102,0.0,0.0,0.0033156935,0.026062012
0.0,0.0,0.0,0.10529644,-0.022841565,0.9941785,0.994441,0.002418581,-0.105268665,2.3283064e-10,-0.99973625,-0.022969257,-0.01137246208190923,-0.031866805720329267,0.06469086151122916,0.0,0.0,0.0033156935,0.026123047
0.0,0.0,0.0,0.10529644,-0.022841565,0.9941785,0.994441,0.002418581,-0.105268665,2.3283064e-10,-0.99973625,-0.022969257,-0.09277531852722176,-0.007924789118766762,-0.052625019836426645,0.0,0.0,0.0033156935,0.026367188
0.0,0.0,-0.024236096,0.10531085,-0.02277505,0.9941785,0.9944391,0.00304671,-0.10526865,0.000631475,-0.99973595,-0.022969255,0.07948834934234617,0.19263953428268432,-0.007135188293457162,0.0,0.0049613826,0.0033156935,0.026062012
0.0,0.0,0.05143925,0.10528037,-0.02291555,0.9941785,0.99444234,0.0017197963,-0.10526866,-0.0007025045,-0.999736,-0.022969257,-0.13813258934021,0.34942149059772487,0.0048358200073241875,-0.0035529656,0.013921416,0.0033156935,0.025939941
0.0,0.0,0.0,0.10528037,-0.02291555,0.9941785,0.99444234,0.0017197963,-0.10526866,-0.0007025045,-0.999736,-0.022969257,-0.38473536033630373,-0.18687968127727506,0.014412626647949622,-0.013453043,0.008994587,0.0033156935,0.025939941
0.0,0.0,-0.045819554,0.105307534,-0.022790402,0.9941785,0.9944396,0.002901746,-0.10526866,0.0004857388,-0.99973613,-0.022969257,-0.03301177015304568,-0.03228879170417784,0.05990245819091733,-0.013453043,0.008994587,0.0033156935,0.025939941
0.0,0.0,0.0,0.105307534,-0.022790402,0.9941785,0.9944396,0.002901746,-0.10526866,0.0004857388,-0.99973613,-0.022969257,-0.10244361829757698,0.2645922141551971,0.06708506317138685,-0.013453043,0.015765445,0.0033156935,0.026000977
0.0,0.0,0.037583202,0.105285265,-0.022893056,0.9941785,0.994442,0.0019322594,-0.10526866,-0.00048891024,-0.99973613,-0.022969257,0.127583382987976,0.049960763621330256,0.014412626647949622,-0.010063884,0.015765445,0.0033156935,0.025939941
0.0,0.0,0.028390244,0.105268374,-0.022970587,0.9941785,0.9944431,0.0011999108,-0.10526866,-0.001225157,-0.9997355,-0.022969257,-0.04226557922363283,-0.004466391229629496,0.014412626647949622,-0.010063884,0.015765445,0.0033156935,0.025939941
0.0,0.0,0.028923169,0.10525111,-0.02304956,0.9941785,0.9944437,0.00045381422,-0.10526866,-0.0019752234,-0.9997343,-0.022969257,-0.1307086451530457,0.017732798171043396,-0.06699022979736391,-0.013353192,0.015765445,0.0033156935,0.025939941
0.0,0.0,0.0,0.10525111,-0.02304956,0.9941785,0.9944437,0.00045381422,-0.10526866,-0.0019752234,-0.9997343,-0.022969257,-0.12831444349288945,-0.28633081266880034,-0.10050905303955204,-0.01656426,0.0082606925,0.0006136021,0.025939941
0.0,0.021871243,-0.047818024,0.104714304,-0.022919033,0.9942382,0.9945021,0.0016902582,-0.104703136,-0.0007191746,-0.99973595,-0.022970023,0.026947872924804606,-0.04559305388927459,-0.04354126281738324,-0.01656426,0.0082606925,0.0006136021,0.026000977
0.0,0.020006005,0.0,0.10419833,-0.022919033,0.9942924,0.9945563,0.0016902582,-0.10418702,-0.0007072541,-0.99973595,-0.022970393,0.22034563531875606,0.023838794255256673,-0.010469712829589639,-0.010764332,0.0082606925,0.0006136021,0.025939941
0.0,0.0,0.0,0.10419833,-0.022919033,0.9942924,0.9945563,0.0016902582,-0.10418702,-0.0007072541,-0.99973595,-0.022970393,7.908258438105165e-05,-0.0862944821119308,-0.03441172943115234,-0.010764332,0.0082606925,0.0006136021,0.026000977
0.0,0.0,-0.039024763,0.104221426,-0.02281379,0.9942924,0.9945541,0.0026946778,-0.10418702,0.00030239782,-0.99973613,-0.022970393,0.15311749238967898,0.12113301007747651,-0.01286391448974733,-0.006738502,0.011318041,0.0006136021,0.025878906
0.0,0.0,-0.023436708,0.10423525,-0.022750573,0.9942924,0.9945523,0.0032978905,-0.10418702,0.00090875407,-0.9997358,-0.022970393,0.2751077533721924,-0.08050135080814358,-0.02483492279052868,0.00040838806,0.011318041,0.0006136021,0.025878906
0.0,0.0,-0.020638851,0.10424744,-0.022694634,0.9942924,0.9945504,0.003831597,-0.10418702,0.0014452424,-0.9997351,-0.022970393,0.09304781455993649,0.3140805384635925,0.03262591705322215,0.00040838806,0.019376993,0.0006136021,0.026000977
0.0,0.0,0.0,0.10424744,-0.022694634,0.9942924,0.9945504,0.003831597,-0.10418702,0.0014452424,-0.9997351,-0.022970393,0.05474058799743642,-0.018713492298126216,0.09726936187744073,0.00040838806,0.019376993,0.0006136021,0.025878906
0.0,0.0,0.0,0.10424744,-0.022694634,0.9942924,0.9945504,0.003831597,-0.10418702,0.0014452424,-0.9997351,-0.022970393,0.06431739463806152,-0.01631929063796997,-0.06553635101318456,0.00040838806,0.019376993,0.0006136021,0.025939941
0.0,0.0,0.0,0.10424744,-0.022694634,0.9942924,0.9945504,0.003831597,-0.10418702,0.0014452424,-0.9997351,-0.022970393,0.004462353134155217,0.014805330944061279,0.003895497131347625,0.00040838806,0.019376993,0.0006136021,0.025939941
0.0,0.0,0.0,0.10424744,-0.022694634,0.9942924,0.9945504,0.003831597,-0.10418702,0.0014452424,-0.9997351,-0.022970393,0.03558697471618644,0.036353145885467536,-0.010469712829589639,0.00040838806,0.019376993,0.0006136021,0.025939941
0.0,0.0,0.0,0.10424744,-0.022694634,0.9942924,0.9945504,0.003831597,-0.10418702,0.0014452424,-0.9997351,-0.022970393,0.006856554794311465,0.017199532604217527,0.03502011871337807,0.00040838806,0.019376993,0.0006136021,0.025878906
0.0,0.0,0.0,0.10424744,-0.022694634,0.9942924,0.9945504,0.003831597,-0.10418702,0.0014452424,-0.9997351,-0.022970393,-0.026662268447876003,-0.047443912220001216,0.011078102111815369,0.00040838806,0.019376993,0.0006136021,0.025817871
0.0,0.0,0.0,0.10424744,-0.022694634,0.9942924,0.9945504,0.003831597,-0.10418702,0.0014452424,-0.9997351,-0.022970393,-0.04102747840881349,-0.05223231554031371,0.020654908752440804,0.00040838806,0.019376993,0.0006136021,0.025817871
0.0,0.0,0.0,0.10424744,-0.022694634,0.9942924,0.9945504,0.003831597,-0.10418702,0.0014452424,-0.9997351,-0.022970393,0.04516378135681143,0.024382137584686298,0.08529835357665938,0.00040838806,0.019376993,0.0006136021,0.026062012
0.0,0.0,0.0,0.10424744,-0.022694634,0.9942924,0.9945504,0.003831597,-0.10418702,0.0014452424,-0.9997351,-0.022970393,0.018827563095092703,-0.013925088977813721,-0.01286391448974733,0.00040838806,0.019376993,0.0006136021,0.025756836
0.0,0.0,0.0,0.10424744,-0.022694634,0.9942924,0.9945504,0.003831597,-0.10418702,0.0014452424,-0.9997351,-0.022970393,-0.033844873428344746,0.014805330944061279,-0.06074794769287095,0.00040838806,0.019376993,0.0006136021,0.025817871
0.0,0.0,0.0,0.10424744,-0.022694634,0.9942924,0.9945504,0.003831597,-0.10418702,0.0014452424,-0.9997351,-0.022970393,-0.06736369667053232,0.04353575086593628,0.03023171539306624,0.00040838806,0.019376993,0.0006136021,0.025756836
0.0,0.0,0.0,0.10424744,-0.022694634,0.9942924,0.9945504,0.003831597,-0.10418702,0.0014452424,-0.9997351,-0.022970393,-0.00990285682678227,0.014805330944061279,-0.015258116149903245,0.00040838806,0.019376993,0.0006136021,0.0256958
0.0,0.0,0.0,0.10424744,-0.022694634,0.9942924,0.9945504,0.003831597,-0.10418702,0.0014452424,-0.9997351,-0.022970393,-0.033844873428344746,0.029170540904998793,-0.0008929061889659806,0.00040838806,0.019376993,0.0006136021,0.0256958
0.0,0.0,0.0,0.10424744,-0.022694634,0.9942924,0.9945504,0.003831597,-0.10418702,0.0014452424,-0.9997351,-0.022970393,0.057134789657592666,0.024382137584686298,-0.02483492279052868,0.00040838806,0.019376993,0.0006136021,0.0256958
0.0,0.0,0.0,0.10424744,-0.022694634,0.9942924,0.9945504,0.003831597,-0.10418702,0.0014452424,-0.9997351,-0.022970393,0.03558697471618644,0.05071835584640505,0.0015012954711917104,0.00040838806,0.019376993,0.0006136021,0.026306152
0.0,0.0,0.0,0.10424744,-0.022694634,0.9942924,0.9945504,0.003831597,-0.10418702,0.0014452424,-0.9997351,-0.022970393,0.016433361434936455,-0.011530887317657446,0.00628969879150354,0.00040838806,0.019376993,0.0006136021,0.027893066
0.0,0.0,0.0,0.10424744,-0.022694634,0.9942924,0.9945504,0.003831597,-0.10418702,0.0014452424,-0.9997351,-0.022970393,0.06192319297790527,0.010016927623748784,-0.0032871078491218952,0.00040838806,0.019376993,0.0006136021,0.027893066
0.0,0.0,0.0,0.10424744,-0.022694634,0.9942924,0.9945504,0.003831597,-0.10418702,0.0014452424,-0.9997351,-0.022970393,0.02122176475524895,-0.01631929063796997,0.00628969879150354,0.00040838806,0.019376993,0.0006136021,0.027832031
0.0,0.0,0.0,0.10424744,-0.022694634,0.9942924,0.9945504,0.003831597,-0.10418702,0.0014452424,-0.9997351,-0.022970393,0.088259411239624,0.005228524303436288,0.027837513732910324,0.00040838806,0.019376993,0.0006136021,0.027832031
0.0,0.0,0.0,0.10424744,-0.022694634,0.9942924,0.9945504,0.003831597,-0.10418702,0.0014452424,-0.9997351,-0.022970393,0.03079857139587394,-0.047443912220001216,-0.04159433441162186,0.00040838806,0.019376993,0.0006136021,0.027893066
0.0,0.0,0.0,0.10424744,-0.022694634,0.9942924,0.9945504,0.003831597,-0.10418702,0.0014452424,-0.9997351,-0.022970393,-0.036239075088500994,-0.03547290391921995,-0.03441172943115234,0.00040838806,0.019376993,0.0006136021,0.027832031
0.0,0.0,0.0,0.10424744,-0.022694634,0.9942924,0.9945504,0.003831597,-0.10418702,0.0014452424,-0.9997351,-0.022970393,-0.06736369667053232,0.03156474256515504,0.027837513732910324,0.00040838806,0.019376993,0.0006136021,0.027832031
0.0,0.0,0.0,0.10424744,-0.022694634,0.9942924,0.9945504,0.003831597,-0.10418702,0.0014452424,-0.9997351,-0.022970393,0.05474058799743642,0.06508356580734254,-0.01765231781005916,0.00040838806,0.019376993,0.0006136021,0.027832031
0.0,0.0,0.0,0.10424744,-0.022694634,0.9942924,0.9945504,0.003831597,-0.10418702,0.0014452424,-0.9997351,-0.022970393,0.006856554794311465,-0.00674248399734495,-0.015258116149903245,0.00040838806,0.019376993,0.0006136021,0.027832031
0.0,0.0,0.0,0.10424744,-0.022694634,0.9942924,0.9945504,0.003831597,-0.10418702,0.0014452424,-0.9997351,-0.022970393,0.009250756454467712,-0.0330787022590637,0.0445969253540035,0.00040838806,0.019376993,0.0006136021,0.027893066
0.0,0.0,0.0,0.10424744,-0.022694634,0.9942924,0.9945504,0.003831597,-0.10418702,0.0014452424,-0.9997351,-0.022970393,0.009250756454467712,0.007622725963592536,0.07811574859619164,0.00040838806,0.019376993,0.0006136021,0.027893066
0.0,0.0,0.0,0.10424744,-0.022694634,0.9942924,0.9945504,0.003831597,-0.10418702,0.0014452424,-0.9997351,-0.022970393,-0.06736369667053232,-0.01631929063796997,0.01826070709228489,0.00040838806,0.019376993,0.0006136021,0.027893066
0.0,0.0,0.0,0.10424744,-0.022694634,0.9942924,0.9945504,0.003831597,-0.10418702,0.0014452424,-0.9997351,-0.022970393,-0.00990285682678227,0.036353145885467536,0.008683900451659454,0.00040838806,0.019376993,0.0006136021,0.027770996
0.0,0.0,0.0,0.10424744,-0.022694634,0.9942924,0.9945504,0.003831597,-0.10418702,0.0014452424,-0.9997351,-0.022970393,0.026010168075561446,0.036353145885467536,0.027837513732910324,0.00040838806,0.019376993,0.0006136021,0.027832031
0.0,0.0,0.0,0.10424744,-0.022694634,0.9942924,0.9945504,0.003831597,-0.10418702,0.0014452424,-0.9997351,-0.022970393,0.037981176376342685,0.05071835584640505,0.0876925552368153,0.00040838806,0.019376993,0.0006136021,0.027893066
0.0,0.0,0.0,0.10424744,-0.022694634,0.9942924,0.9945504,0.003831597,-0.10418702,0.0014452424,-0.9997351,-0.022970393,0.0020681514739989693,0.0004401209831237929,-0.01286391448974733,0.00040838806,0.019376993,0.0006136021,0.027832031
0.0,0.0,0.0,0.10424744,-0.022694634,0.9942924,0.9945504,0.003831597,-0.10418702,0.0014452424,-0.9997351,-0.022970393,0.03079857139587394,0.007622725963592536,0.05896213531494077,0.00040838806,0.019376993,0.0006136021,0.028381348
0.0,0.0,0.0,0.10424744,-0.022694634,0.9942924,0.9945504,0.003831597,-0.10418702,0.0014452424,-0.9997351,-0.022970393,0.03319277305603019,0.0028343226432800406,0.07332734527587803,0.00040838806,0.019376993,0.0006136021,0.027832031
0.0,0.0,0.0,0.10424744,-0.022694634,0.9942924,0.9945504,0.003831597,-0.10418702,0.0014452424,-0.9997351,-0.022970393,0.006856554794311465,0.0028343226432800406,-0.008075511169433724,0.00040838806,0.019376993,0.0006136021,0.027770996
0.0,0.0,0.0,0.10424744,-0.022694634,0.9942924,0.9945504,0.003831597,-0.10418702,0.0014452424,-0.9997351,-0.022970393,-0.05060428504943848,-0.04265550889968872,-0.00568130950927781,0.00040838806,0.019376993,0.0006136021,0.027832031
0.0,0.0,0.0,0.10424744,-0.022694634,0.9942924,0.9945504,0.003831597,-0.10418702,0.0014452424,-0.9997351,-0.022970393,0.02122176475524895,-0.021107693958282464,0.10684616851806616,0.00040838806,0.019376993,0.0034517238,0.027893066
0.0,0.0,0.0,0.10424744,-0.022694634,0.9942924,0.9945504,0.003831597,-0.10418702,0.0014452424,-0.9997351,-0.022970393,0.03558697471618644,0.07226617078781128,-0.03201752777099642,0.00040838806,0.019376993,0.0034517238,0.027893066
0.0,0.0,0.0,0.10424744,-0.022694634,0.9942924,0.9945504,0.003831597,-0.10418702,0.0014452424,-0.9997351,-0.022970393,0.0020681514739989693,-0.03547290391921995,-0.04398853607177777,0.00040838806,0.019376993,0.0034517238,0.027893066
0.0,0.0,0.0,0.10424744,-0.022694634,0.9942924,0.9945504,0.003831597,-0.10418702,0.0014452424,-0.9997351,-0.022970393,-0.05299848670959473,0.09141978406906129,0.03980852203369167,0.00040838806,0.019376993,0.0034517238,0.027893066
0.0,0.0,0.0,0.10424744,-0.022694634,0.9942924,0.9945504,0.003831597,-0.10418702,0.0014452424,-0.9997351,-0.022970393,0.006856554794311465,-0.040261307239532446,0.03980852203369167,0.00040838806,0.019376993,0.0034517238,0.027832031
0.0,0.0,0.0,0.10424744,-0.022694634,0.9942924,0.9945504,0.003831597,-0.10418702,0.0014452424,-0.9997351,-0.022970393,0.006856554794311465,-0.021107693958282464,0.01826070709228489,0.00040838806,0.019376993,0.0034517238,0.027832031
0.0,0.0,0.0,0.10424744,-0.022694634,0.9942924,0.9945504,0.003831597,-0.10418702,0.0014452424,-0.9997351,-0.022970393,0.0020681514739989693,0.029170540904998793,0.07572154693603395,0.00040838806,0.019376993,0.0034517238,0.027832031
0.0,0.0,0.0,0.10424744,-0.022694634,0.9942924,0.9945504,0.003831597,-0.10418702,0.0014452424,-0.9997351,-0.022970393,-0.021873865127563508,-0.06420332384109495,0.11881717681884751,0.00040838806,0.019376993,0.00659846,0.027893066
0.0,0.0,0.0,0.10424744,-0.022694634,0.9942924,0.9945504,0.003831597,-0.10418702,0.0014452424,-0.9997351,-0.022970393,-0.036239075088500994,0.04592995252609253,0.02304911041259672,0.00040838806,0.019376993,0.00659846,0.027893066
0.0,0.0,0.0,0.10424744,-0.022694634,0.9942924,0.9945504,0.003831597,-0.10418702,0.0014452424,-0.9997351,-0.022970393,0.009250756454467712,0.03156474256515504,0.04699112701415942,0.00040838806,0.019376993,0.00659846,0.027832031
0.0,0.0,0.0,0.10424744,-0.022694634,0.9942924,0.9945504,0.003831597,-0.10418702,0.0014452424,-0.9997351,-0.022970393,0.06192319297790527,0.012411129283905031,0.020654908752440804,0.00040838806,0.019376993,0.00659846,0.027770996
0.0,0.0,0.0,0.10424744,-0.022694634,0.9942924,0.9945504,0.003831597,-0.10418702,0.0014452424,-0.9997351,-0.022970393,0.03319277305603019,-0.08814534044265743,0.14994179840087796,0.00040838806,0.019376993,0.010574529,0.027832031
0.0,0.0,0.0,0.10424744,-0.022694634,0.9942924,0.9945504,0.003831597,-0.10418702,0.0014452424,-0.9997351,-0.022970393,0.05234638633728017,-0.047443912220001216,0.03741432037353398,0.00040838806,0.019376993,0.010574529,0.027832031
0.0,0.0,0.0,0.10424744,-0.022694634,0.9942924,0.9945504,0.003831597,-0.10418702,0.0014452424,-0.9997351,-0.022970393,0.028404369735717694,0.048324154186248774,0.01347230377197306,0.00040838806,0.019376993,0.010574529,0.027832031
0.0,0.0,0.0,0.10424744,-0.022694634,0.9942924,0.9945504,0.003831597,-0.10418702,0.0014452424,-0.9997351,-0.022970393,0.17684487266540527,-0.02589609727859496,0.020654908752440804,0.005251053,0.019376993,0.010574529,0.027770996
0.0,0.0,-0.046086017,0.10427647,-0.0225609,0.9942924,0.9945447,0.0051072715,-0.10418702,0.0027275688,-0.99973243,-0.022970393,0.6458690258026123,0.061586305689811716,0.05177953033447302,0.023068719,0.019376993,0.010574529,0.027832031
0.0,0.0,-0.040756766,0.10430205,-0.02244234,0.9942924,0.99453825,0.0062378976,-0.10418702,0.0038640941,-0.9997287,-0.022970393,-0.3239936470031739,-0.03994805274009702,-0.06793055267334047,0.013918994,0.019376993,0.010574529,0.027893066
0.0,0.0,-0.046618942,0.104331076,-0.02230699,0.9942924,0.9945293,0.0075283055,-0.10418702,0.005161239,-0.99972284,-0.022970393,0.19530868139266966,0.016396407008171104,0.16430700836181522,0.019215912,0.019376993,0.014925911,0.027832031
0.0,0.0,-0.0515485,0.10436297,-0.022157283,0.9942924,0.9945175,0.008955148,-0.10418702,0.006595535,-0.99971443,-0.022970393,0.44404255914688107,0.16120790865421294,-0.19003483734130988,0.0313745,0.023730565,0.009442793,0.027832031
0.0,0.0,0.0,0.10436297,-0.022157283,0.9942924,0.9945175,0.008955148,-0.10418702,0.006595535,-0.99971443,-0.022970393,0.16870936822891225,0.05586303560733796,0.027837513732910324,0.035926003,0.023730565,0.009442793,0.028320312
0.0,0.0,-0.02157147,0.104376316,-0.022094347,0.9942924,0.9945119,0.009554852,-0.10418702,0.007198373,-0.99971026,-0.022970393,0.23324278287887568,0.052949722194671645,0.1355765884399407,0.04219114,0.023730565,0.013016925,0.027954102
0.0,0.0,-0.053280503,0.10440904,-0.021939203,0.9942924,0.9944966,0.011032842,-0.10418702,0.008684091,-0.99969846,-0.022970393,-0.047148701190948494,-0.044097981429100014,-0.05117114105224729,0.04219114,0.023730565,0.013016925,0.027893066
0.0,0.0,-0.08632185,0.10446145,-0.021688296,0.9942924,0.9944672,0.013422101,-0.10418702,0.011085855,-0.99967474,-0.022970393,0.09128274221420285,-0.09883993592262269,-0.04398853607177777,0.04219114,0.020854028,0.013016925,0.027832031
0.0,0.0,-0.06726979,0.104501866,-0.021492679,0.9942924,0.9944403,0.015283973,-0.10418702,0.012957482,-0.9996522,-0.022970393,-0.09819261732101447,0.012074074172973653,-0.08708416595458957,0.03921571,0.020854028,0.013016925,0.027832031
0.0,0.0,0.0,0.104501866,-0.021492679,0.9942924,0.9944403,0.015283973,-0.10418702,0.012957482,-0.9996522,-0.022970393,-0.43338084974288943,-0.11481861381530761,0.19064322662353383,0.026758043,0.017490337,0.018200302,0.028320312
0.0,0.0,0.0,0.104501866,-0.021492679,0.9942924,0.9944403,0.015283973,-0.10418702,0.012957482,-0.9996522,-0.022970393,-0.14607665052413943,0.05516970405578614,-0.027229124450684594,0.022532657,0.017490337,0.018200302,0.027832031
0.0,0.0,0.0,0.104501866,-0.021492679,0.9942924,0.9944403,0.015283973,-0.10418702,0.012957482,-0.9996522,-0.022970393,-0.2657867335319519,-0.04538676567077635,-0.01286391448974733,0.015013281,0.017490337,0.018200302,0.027832031
0.0,0.0,-0.020372389,0.10451403,-0.021433422,0.9942924,0.9944315,0.015847823,-0.10418702,0.013524287,-0.9996447,-0.022970393,-0.4861536008834839,-0.041087120437622054,0.03741432037353398,0.001428911,0.017490337,0.018200302,0.027832031
0.0,0.0,0.0,0.10451403,-0.021433422,0.9942924,0.9944315,0.015847823,-0.10418702,0.013524287,-0.9996447,-0.022970393,-0.5412202390670777,0.12411279411315917,-0.015258116149903245,-0.0135795055,0.020816568,0.018200302,0.027770996
0.0,0.0,0.0,0.10451403,-0.021433422,0.9942924,0.9944315,0.015847823,-0.10418702,0.013524287,-0.9996447,-0.022970393,-0.05040889873504639,-0.0027798938751220637,0.03023171539306624,-0.0135795055,0.020816568,0.018200302,0.027893066
0.0,0.0,0.0,0.10451403,-0.021433422,0.9942924,0.9944315,0.015847823,-0.10418702,0.013524287,-0.9996447,-0.022970393,-0.024072680473327668,0.013979517745971698,-0.015258116149903245,-0.0135795055,0.020816568,0.018200302,0.027893066
0.0,0.0,0.0,0.10451403,-0.021433422,0.9942924,0.9944315,0.015847823,-0.10418702,0.013524287,-0.9996447,-0.022970393,-0.04322629375457765,0.02355632438659669,-0.04638273773193369,-0.0135795055,0.020816568,0.018200302,0.027832031
0.0,0.0,0.0,0.10451403,-0.021433422,0.9942924,0.9944315,0.015847823,-0.10418702,0.013524287,-0.9996447,-0.022970393,0.016628747749328543,-0.02432770881652832,0.020654908752440804,-0.0135795055,0.020816568,0.018200302,0.027770996
0.0,0.0,0.0,0.10451403,-0.021433422,0.9942924,0.9944315,0.015847823,-0.10418702,0.013524287,-0.9996447,-0.022970393,0.04296496601104727,-0.012356700515747054,-0.039200132751465944,-0.0135795055,0.020816568,0.018200302,0.027893066
0.0,0.0,0.0,0.10451403,-0.021433422,0.9942924,0.9944315,0.015847823,-0.10418702,0.013524287,-0.9996447,-0.022970393,-0.004919067192077686,-0.050663927078247045,-0.06553635101318456,-0.0135795055,0.020816568,0.018200302,0.027832031
0.0,0.0,0.0,0.10451403,-0.021433422,0.9942924,0.9944315,0.015847823,-0.10418702,0.013524287,-0.9996447,-0.022970393,-0.024072680473327668,-0.02432770881652832,-0.09187256927490317,-0.0135795055,0.020816568,0.018200302,0.027770996
0.0,0.0,0.0,0.10451403,-0.021433422,0.9942924,0.9944315,0.015847823,-0.10418702,0.013524287,-0.9996447,-0.022970393,0.0046577394485473045,0.03313313102722168,0.01347230377197306,-0.0135795055,0.020816568,0.018200302,0.027770996
0.0,0.0,0.0,0.10451403,-0.021433422,0.9942924,0.9944315,0.015847823,-0.10418702,0.013524287,-0.9996447,-0.022970393,-0.0025248655319214386,-0.0027798938751220637,-0.06314214935302864,-0.0135795055,0.020816568,0.018200302,0.027832031
0.0,0.0,0.0,0.10451403,-0.021433422,0.9942924,0.9944315,0.015847823,-0.10418702,0.013524287,-0.9996447,-0.022970393,0.057330175971984865,0.009191114425659203,-0.027229124450684594,-0.0135795055,0.020816568,0.018200302,0.027832031
0.0,0.0,0.0,0.10451403,-0.021433422,0.9942924,0.9944315,0.015847823,-0.10418702,0.013524287,-0.9996447,-0.022970393,0.054935974311828506,-0.021933507156372045,-0.06793055267334047,-0.0135795055,0.020816568,0.018200302,0.027832031
0.0,0.0,0.0,0.10451403,-0.021433422,0.9942924,0.9944315,0.015847823,-0.10418702,0.013524287,-0.9996447,-0.022970393,-0.0025248655319214386,-0.019539305496215797,0.07093314361572212,-0.0135795055,0.020816568,0.018200302,0.027832031
0.0,0.0,0.0,0.10451403,-0.021433422,0.9942924,0.9944315,0.015847823,-0.10418702,0.013524287,-0.9996447,-0.022970393,-0.016890075492858925,-0.0027798938751220637,0.027837513732910324,-0.0135795055,0.020816568,0.018200302,0.027832031
0.0,0.0,0.0,0.10451403,-0.021433422,0.9942924,0.9944315,0.015847823,-0.10418702,0.013524287,-0.9996447,-0.022970393,-0.014495873832702677,-0.03869291877746581,0.06135633697509668,-0.0135795055,0.020816568,0.018200302,0.028442383
0.0,0.0,0.0,0.10451403,-0.021433422,0.9942924,0.9944315,0.015847823,-0.10418702,0.013524287,-0.9996447,-0.022970393,0.016628747749328543,-0.019539305496215797,0.03262591705322215,-0.0135795055,0.020816568,0.018200302,0.028015137
0.0,0.0,0.0,0.10451403,-0.021433422,0.9942924,0.9944315,0.015847823,-0.10418702,0.013524287,-0.9996447,-0.022970393,0.011840344429016048,-0.019539305496215797,0.05656793365478485,-0.0135795055,0.020816568,0.018200302,0.027832031
0.0,0.0,0.0,0.10451403,-0.021433422,0.9942924,0.9944315,0.015847823,-0.10418702,0.013524287,-0.9996447,-0.022970393,-0.004919067192077686,-0.031510313796997064,-0.027229124450684594,-0.0135795055,0.020816568,0.018200302,0.027832031
0.0,0.0,0.0,0.10451403,-0.021433422,0.9942924,0.9944315,0.015847823,-0.10418702,0.013524287,-0.9996447,-0.022970393,0.026205554389953534,0.016373719406127946,0.01347230377197306,-0.0135795055,0.020816568,0.018200302,0.027832031
0.0,0.0,0.0,0.10451403,-0.021433422,0.9942924,0.9944315,0.015847823,-0.10418702,0.013524287,-0.9996447,-0.022970393,-0.0001306638717651909,-0.04587552375793455,-0.020046519470215074,-0.0135795055,0.020816568,0.018200302,0.027832031
0.0,0.0,0.0,0.10451403,-0.021433422,0.9942924,0.9944315,0.015847823,-0.10418702,0.013524287,-0.9996447,-0.022970393,-0.01210167217254643,-0.012356700515747054,0.05656793365478485,-0.0135795055,0.020816568,0.018200302,0.027832031
0.0,0.0,0.0,0.10451403,-0.021433422,0.9942924,0.9944315,0.015847823,-0.10418702,0.013524287,-0.9996447,-0.022970393,-0.019284277153015172,-0.03629871711730956,0.03262591705322215,-0.0135795055,0.020816568,0.018200302,0.027832031
0.0,0.0,0.0,0.10451403,-0.021433422,0.9942924,0.9944315,0.015847823,-0.10418702,0.013524287,-0.9996447,-0.022970393,-0.0025248655319214386,0.03313313102722168,0.10205776519775256,-0.0135795055,0.020816568,0.018200302,0.027770996
0.0,0.0,0.0,0.10451403,-0.021433422,0.9942924,0.9944315,0.015847823,-0.10418702,0.013524287,-0.9996447,-0.022970393,-0.09829293193817146,0.004402711105346679,-0.0727189559936523,-0.0135795055,0.020816568,0.018200302,0.027832031
0.0,0.0,0.0,0.10451403,-0.021433422,0.9942924,0.9944315,0.015847823,-0.10418702,0.013524287,-0.9996447,-0.022970393,-0.07913931865692148,0.02355632438659669,0.03262591705322215,-0.0135795055,0.020816568,0.018200302,0.027893066
0.0,0.0,0.0,0.10451403,-0.021433422,0.9942924,0.9944315,0.015847823,-0.10418702,0.013524287,-0.9996447,-0.022970393,0.023811352729797286,-0.00038569221496581596,-0.03680593109130825,-0.0135795055,0.020816568,0.018200302,0.027893066
0.0,0.0,0.0,0.10451403,-0.021433422,0.9942924,0.9944315,0.015847823,-0.10418702,0.013524287,-0.9996447,-0.022970393,-0.0001306638717651909,0.02355632438659669,0.003895497131347625,-0.0135795055,0.020816568,0.018200302,0.027832031
0.0,0.0,0.0,0.10451403,-0.021433422,0.9942924,0.9944315,0.015847823,-0.10418702,0.013524287,-0.9996447,-0.022970393,0.05972437763214111,-0.02672191047668457,0.03262591705322215,-0.0135795055,0.020816568,0.018200302,0.027893066
0.0,0.0,0.0,0.10451403,-0.021433422,0.9942924,0.9944315,0.015847823,-0.10418702,0.013524287,-0.9996447,-0.022970393,0.011840344429016048,-0.00038569221496581596,-0.03680593109130825,-0.0135795055,0.020816568,0.018200302,0.027832031
0.0,0.0,0.0,0.10451403,-0.021433422,0.9942924,0.9944315,0.015847823,-0.10418702,0.013524287,-0.9996447,-0.022970393,0.026205554389953534,-0.041087120437622054,-0.03680593109130825,-0.0135795055,0.020816568,0.018200302,0.027832031
0.0,0.0,0.0,0.10451403,-0.021433422,0.9942924,0.9944315,0.015847823,-0.10418702,0.013524287,-0.9996447,-0.022970393,-0.024072680473327668,-0.02432770881652832,0.00628969879150354,-0.0135795055,0.020816568,0.018200302,0.027832031
0.0,0.0,0.0,0.10451403,-0.021433422,0.9942924,0.9944315,0.015847823,-0.10418702,0.013524287,-0.9996447,-0.022970393,0.04296496601104727,-0.0482697254180908,0.02304911041259672,-0.0135795055,0.020816568,0.018200302,0.027832031
0.0,0.0,0.0,0.10451403,-0.021433422,0.9942924,0.9944315,0.015847823,-0.10418702,0.013524287,-0.9996447,-0.022970393,0.026205554389953534,0.028344727706909184,-0.0008929061889659806,-0.0135795055,0.020816568,0.018200302,0.027770996
0.0,0.0,0.0,0.10451403,-0.021433422,0.9942924,0.9944315,0.015847823,-0.10418702,0.013524287,-0.9996447,-0.022970393,0.01902294940948479,0.04031573600769045,0.015866505432128974,-0.0135795055,0.020816568,0.018200302,0.027832031
0.0,0.0,0.0,0.10451403,-0.021433422,0.9942924,0.9944315,0.015847823,-0.10418702,0.013524287,-0.9996447,-0.022970393,-0.038437890434265154,-0.03869291877746581,0.03741432037353398,-0.0135795055,0.020816568,0.018200302,0.027770996
0.0,0.0,0.0,0.10451403,-0.021433422,0.9942924,0.9944315,0.015847823,-0.10418702,0.013524287,-0.9996447,-0.022970393,-0.0001306638717651909,-0.03629871711730956,0.08529835357665938,-0.0135795055,0.020816568,0.018200302,0.027770996
0.0,0.0,0.0,0.10451403,-0.021433422,0.9942924,0.9944315,0.015847823,-0.10418702,0.013524287,-0.9996447,-0.022970393,-0.0001306638717651909,-0.0482697254180908,-0.0775073593139659,-0.0135795055,0.020816568,0.018200302,0.027770996
0.0,0.0,0.0,0.10451403,-0.021433422,0.9942924,0.9944315,0.015847823,-0.10418702,0.013524287,-0.9996447,-0.022970393,0.03338815937042228,0.006796912765502927,-0.02244072113037099,-0.0135795055,0.020816568,0.018200302,0.027832031
0.0,0.0,0.0,0.10451403,-0.021433422,0.9942924,0.9944315,0.015847823,-0.10418702,0.013524287,-0.9996447,-0.022970393,0.0046577394485473045,0.028344727706909184,-0.027229124450684594,-0.0135795055,0.020816568,0.018200302,0.028381348
0.0,0.0,0.0,0.10451403,-0.021433422,0.9942924,0.9944315,0.015847823,-0.10418702,0.013524287,-0.9996447,-0.022970393,0.007051941108703552,0.016373719406127946,-0.04638273773193369,-0.0135795055,0.020816568,0.018200302,0.027832031
0.0,0.0,0.0,0.10451403,-0.021433422,0.9942924,0.9944315,0.015847823,-0.10418702,0.013524287,-0.9996447,-0.022970393,-0.06477410869598388,0.045104139328002946,0.08050995025634755,-0.0135795055,0.020816568,0.018200302,0.027770996
0.0,0.0,0.0,0.10451403,-0.021433422,0.9942924,0.9944315,0.015847823,-0.10418702,0.013524287,-0.9996447,-0.022970393,0.016628747749328543,0.028344727706909184,-0.01765231781005916,-0.0135795055,0.020816568,0.018200302,0.028015137
0.0,0.0,0.0,0.10451403,-0.021433422,0.9942924,0.9944315,0.015847823,-0.10418702,0.013524287,-0.9996447,-0.022970393,0.04775336933135976,-0.021933507156372045,-0.0487769393920896,-0.0135795055,0.020816568,0.018200302,0.028015137
0.0,0.0,0.0,0.10451403,-0.021433422,0.9942924,0.9944315,0.015847823,-0.10418702,0.013524287,-0.9996447,-0.022970393,0.01902294940948479,-0.03869291877746581,-0.03441172943115234,-0.0135795055,0.020816568,0.018200302,0.027832031
0.0,0.0,0.0,0.10451403,-0.021433422,0.9942924,0.9944315,0.015847823,-0.10418702,0.013524287,-0.9996447,-0.022970393,0.05254177265167226,-0.02432770881652832,0.07093314361572212,-0.0135795055,0.020816568,0.018200302,0.027832031
0.0,0.0,0.0,0.10451403,-0.021433422,0.9942924,0.9944315,0.015847823,-0.10418702,0.013524287,-0.9996447,-0.022970393,0.0094461427688598,0.0020085094451904317,0.05896213531494077,-0.0135795055,0.020816568,0.018200302,0.027832031
0.0,0.0,0.0,0.10451403,-0.021433422,0.9942924,0.9944315,0.015847823,-0.10418702,0.013524287,-0.9996447,-0.022970393,0.035782361030578524,0.004402711105346679,0.09726936187744073,-0.0135795055,0.020816568,0.018200302,0.027770996
0.0,0.0,0.0,0.10451403,-0.021433422,0.9942924,0.9944315,0.015847823,-0.10418702,0.013524287,-0.9996447,-0.022970393,0.035782361030578524,-0.029116112136840816,0.027837513732910324,-0.0135795055,0.020816568,0.018200302,0.027770996
0.0,0.0,0.0,0.10451403,-0.021433422,0.9942924,0.9944315,0.015847823,-0.10418702,0.013524287,-0.9996447,-0.022970393,0.02859975605010978,0.03313313102722168,-0.0008929061889659806,-0.0135795055,0.020816568,0.018200302,0.027832031
0.0,0.0,0.0,0.10451403,-0.021433422,0.9942924,0.9944315,0.015847823,-0.10418702,0.013524287,-0.9996447,-0.022970393,-0.0025248655319214386,0.025950526046752936,0.03980852203369167,-0.0135795055,0.020816568,0.018200302,0.027832031
0.0,0.0,0.0,0.10451403,-0.021433422,0.9942924,0.9944315,0.015847823,-0.10418702,0.013524287,-0.9996447,-0.022970393,-0.038437890434265154,0.006796912765502927,0.04699112701415942,-0.0135795055,0.020816568,0.018200302,0.027832031
0.0,0.0,0.0,0.10451403,-0.021433422,0.9942924,0.9944315,0.015847823,-0.10418702,0.013524287,-0.9996447,-0.022970393,-0.026466882133483915,-0.021933507156372045,0.04938532867431533,-0.0135795055,0.020816568,0.018200302,0.027832031
0.0,0.0,0.0,0.10451403,-0.021433422,0.9942924,0.9944315,0.015847823,-0.10418702,0.013524287,-0.9996447,-0.022970393,-0.024072680473327668,0.054680945968627936,-0.0487769393920896,-0.0135795055,0.020816568,0.018200302,0.027893066
0.0,0.0,0.0,0.10451403,-0.021433422,0.9942924,0.9944315,0.015847823,-0.10418702,0.013524287,-0.9996447,-0.022970393,-0.007313268852233934,0.04031573600769045,-0.039200132751465944,-0.0135795055,0.020816568,0.018200302,0.027832031
0.0,0.0,0.0,0.10451403,-0.021433422,0.9942924,0.9944315,0.015847823,-0.10418702,0.013524287,-0.9996447,-0.022970393,-0.02167847881317142,-0.04587552375793455,0.020654908752440804,-0.0135795055,0.020816568,0.018200302,0.027893066
0.0,0.0,0.0,0.10451403,-0.021433422,0.9942924,0.9944315,0.015847823,-0.10418702,0.013524287,-0.9996447,-0.022970393,-0.07674511699676523,-0.0027798938751220637,-0.0008929061889659806,-0.0135795055,0.020816568,0.018200302,0.028259277
0.0,0.0,0.0,0.10451403,-0.021433422,0.9942924,0.9944315,0.015847823,-0.10418702,0.013524287,-0.9996447,-0.022970393,-0.048014697074890145,-0.005174095535278311,-0.05835374603271504,-0.0135795055,0.020816568,0.018200302,0.028015137
0.0,0.0,0.0,0.10451403,-0.021433422,0.9942924,0.9944315,0.015847823,-0.10418702,0.013524287,-0.9996447,-0.022970393,0.02859975605010978,-0.02432770881652832,-0.02962332611084051,-0.0135795055,0.020816568,0.018200302,0.027893066
0.0,0.0,0.0,0.10451403,-0.021433422,0.9942924,0.9944315,0.015847823,-0.10418702,0.013524287,-0.9996447,-0.022970393,0.002263537788391057,-0.03869291877746581,0.003895497131347625,-0.0135795055,0.020816568,0.018200302,0.027893066
0.0,0.0,0.0,0.10451403,-0.021433422,0.9942924,0.9944315,0.015847823,-0.10418702,0.013524287,-0.9996447,-0.022970393,-0.004919067192077686,0.018767921066284193,0.03741432037353398,-0.0135795055,0.020816568,0.018200302,0.027832031
0.0,0.0,0.0,0.10451403,-0.021433422,0.9942924,0.9944315,0.015847823,-0.10418702,0.013524287,-0.9996447,-0.022970393,0.02859975605010978,-0.02672191047668457,0.00628969879150354,-0.0135795055,0.020816568,0.018200302,0.027893066
0.0,0.0,0.0,0.10451403,-0.021433422,0.9942924,0.9944315,0.015847823,-0.10418702,0.013524287,-0.9996447,-0.022970393,0.05972437763214111,-0.005174095535278311,-0.010469712829589639,-0.0135795055,0.020816568,0.018200302,0.028381348
0.0,0.0,0.0,0.10451403,-0.021433422,0.9942924,0.9944315,0.015847823,-0.10418702,0.013524287,-0.9996447,-0.022970393,0.0046577394485473045,-0.019539305496215797,-0.020046519470215074,-0.0135795055,0.020816568,0.018200302,0.027832031
0.0,0.0,0.0,0.10451403,-0.021433422,0.9942924,0.9944315,0.015847823,-0.10418702,0.013524287,-0.9996447,-0.022970393,-0.05040889873504639,0.0020085094451904317,0.008683900451659454,-0.0135795055,0.020816568,0.018200302,0.027832031
0.0,0.0,0.0,0.10451403,-0.021433422,0.9942924,0.9944315,0.015847823,-0.10418702,0.013524287,-0.9996447,-0.022970393,-0.009707470512390182,-0.02432770881652832,0.003895497131347625,-0.0135795055,0.020816568,0.018200302,0.027893066
0.0,0.0,0.0,0.10451403,-0.021433422,0.9942924,0.9944315,0.015847823,-0.10418702,0.013524287,-0.9996447,-0.022970393,-0.01210167217254643,-0.0027798938751220637,0.01347230377197306,-0.0135795055,0.020816568,0.018200302,0.027832031
0.0,0.0,0.0,0.10451403,-0.021433422,0.9942924,0.9944315,0.015847823,-0.10418702,0.013524287,-0.9996447,-0.022970393,0.06690698261260986,0.030738929367065432,-0.015258116149903245,-0.0135795055,0.020816568,0.018200302,0.027832031
0.0,0.0,0.0,0.10451403,-0.021433422,0.9942924,0.9944315,0.015847823,-0.10418702,0.013524287,-0.9996447,-0.022970393,0.07648378925323485,-0.00038569221496581596,0.01347230377197306,-0.0135795055,0.020816568,0.018200302,0.027893066
0.0,0.0,0.0,0.10451403,-0.021433422,0.9942924,0.9944315,0.015847823,-0.10418702,0.013524287,-0.9996447,-0.022970393,0.0046577394485473045,0.009191114425659203,-0.008075511169433724,-0.0135795055,0.020816568,0.018200302,0.027832031
0.0,0.0,0.0,0.10451403,-0.021433422,0.9942924,0.9944315,0.015847823,-0.10418702,0.013524287,-0.9996447,-0.022970393,0.007051941108703552,-0.021933507156372045,0.03023171539306624,-0.0135795055,0.020816568,0.018200302,0.027893066
0.0,0.0,0.0,0.10451403,-0.021433422,0.9942924,0.9944315,0.015847823,-0.10418702,0.013524287,-0.9996447,-0.022970393,0.04296496601104727,-0.041087120437622054,-0.0727189559936523,-0.0135795055,0.020816568,0.018200302,0.027832031
0.0,0.0,0.0,0.10451403,-0.021433422,0.9942924,0.9944315,0.015847823,-0.10418702,0.013524287,-0.9996447,-0.022970393,0.04057076435089102,-0.05305812873840332,-0.11342038421630996,-0.0135795055,0.020816568,0.014897742,0.027832031
0.0,0.0,0.0,0.10451403,-0.021433422,0.9942924,0.9944315,0.015847823,-0.10418702,0.013524287,-0.9996447,-0.022970393,0.05254177265167226,-0.021933507156372045,-0.010469712829589639,-0.0135795055,0.020816568,0.014897742,0.027832031
0.0,0.0,0.0,0.10451403,-0.021433422,0.9942924,0.9944315,0.015847823,-0.10418702,0.013524287,-0.9996447,-0.022970393,-0.007313268852233934,0.02355632438659669,0.00628969879150354,-0.0135795055,0.020816568,0.014897742,0.027832031
0.0,0.0,0.0,0.10451403,-0.021433422,0.9942924,0.9944315,0.015847823,-0.10418702,0.013524287,-0.9996447,-0.022970393,0.05972437763214111,0.016373719406127946,-0.02962332611084051,-0.0135795055,0.020816568,0.014897742,0.027770996
0.0,0.0,0.0,0.10451403,-0.021433422,0.9942924,0.9944315,0.015847823,-0.10418702,0.013524287,-0.9996447,-0.022970393,0.05972437763214111,-0.04587552375793455,-0.04638273773193369,-0.0135795055,0.020816568,0.014897742,0.027832031
0.0,0.0,0.0,0.10451403,-0.021433422,0.9942924,0.9944315,0.015847823,-0.10418702,0.013524287,-0.9996447,-0.022970393,0.026205554389953534,-0.019539305496215797,0.003895497131347625,-0.0135795055,0.020816568,0.014897742,0.027832031
0.0,0.0,0.0,0.10451403,-0.021433422,0.9942924,0.9944315,0.015847823,-0.10418702,0.013524287,-0.9996447,-0.022970393,-0.05280310039520264,0.04031573600769045,-0.01286391448974733,-0.0135795055,0.020816568,0.014897742,0.027770996
0.0,0.0,0.0,0.10451403,-0.021433422,0.9942924,0.9944315,0.015847823,-0.10418702,0.013524287,-0.9996447,-0.022970393,0.0046577394485473045,-0.029116112136840816,-0.01286391448974733,-0.0135795055,0.020816568,0.014897742,0.027770996
0.0,0.0,0.0,0.10451403,-0.021433422,0.9942924,0.9944315,0.015847823,-0.10418702,0.013524287,-0.9996447,-0.022970393,0.03099395771026603,-0.03869291877746581,-0.02962332611084051,-0.0135795055,0.020816568,0.014897742,0.027832031
0.0,0.0,0.0,0.10451403,-0.021433422,0.9942924,0.9944315,0.015847823,-0.10418702,0.013524287,-0.9996447,-0.022970393,0.016628747749328543,-0.08178854866027829,0.03262591705322215,-0.0135795055,0.020816568,0.014897742,0.027709961
0.0,0.0,0.0,0.10451403,-0.021433422,0.9942924,0.9944315,0.015847823,-0.10418702,0.013524287,-0.9996447,-0.022970393,-0.03125528545379641,0.02355632438659669,0.01826070709228489,-0.0135795055,0.020816568,0.014897742,0.027832031
0.0,0.0,0.0,0.10451403,-0.021433422,0.9942924,0.9944315,0.015847823,-0.10418702,0.013524287,-0.9996447,-0.022970393,-0.04322629375457765,-0.005174095535278311,0.00628969879150354,-0.0135795055,0.020816568,0.014897742,0.027893066
0.0,0.0,0.0,0.10451403,-0.021433422,0.9942924,0.9944315,0.015847823,-0.10418702,0.013524287,-0.9996447,-0.022970393,-0.05040889873504639,0.018767921066284193,0.011078102111815369,-0.0135795055,0.020816568,0.014897742,0.027832031
0.0,0.0,0.0,0.10451403,-0.021433422,0.9942924,0.9944315,0.015847823,-0.10418702,0.013524287,-0.9996447,-0.022970393,-0.04322629375457765,-0.0027798938751220637,-0.0032871078491218952,-0.0135795055,0.020816568,0.014897742,0.028381348
0.0,0.0,0.0,0.10451403,-0.021433422,0.9942924,0.9944315,0.015847823,-0.10418702,0.013524287,-0.9996447,-0.022970393,0.011840344429016048,-0.050663927078247045,-0.04398853607177777,-0.0135795055,0.020816568,0.014897742,0.027832031
0.0,0.0,0.0,0.10451403,-0.021433422,0.9942924,0.9944315,0.015847823,-0.10418702,0.013524287,-0.9996447,-0.022970393,0.03338815937042228,0.025950526046752936,-0.04638273773193369,-0.0135795055,0.020816568,0.014897742,0.027832031
0.0,0.0,0.0,0.10451403,-0.021433422,0.9942924,0.9944315,0.015847823,-0.10418702,0.013524287,-0.9996447,-0.022970393,0.016628747749328543,-0.02432770881652832,0.03023171539306624,-0.0135795055,0.020816568,0.014897742,0.027832031
0.0,0.0,0.0,0.10451403,-0.021433422,0.9942924,0.9944315,0.015847823,-0.10418702,0.013524287,-0.9996447,-0.022970393,0.054935974311828506,-0.02432770881652832,-0.06074794769287095,-0.0135795055,0.020816568,0.014897742,0.027832031
0.0,0.0,0.0,0.10451403,-0.021433422,0.9942924,0.9944315,0.015847823,-0.10418702,0.013524287,-0.9996447,-0.022970393,0.07169538593292235,0.009191114425659203,0.09008675689697299,-0.0135795055,0.020816568,0.014897742,0.027832031
0.0,0.0,0.0,0.10451403,-0.021433422,0.9942924,0.9944315,0.015847823,-0.10418702,0.013524287,-0.9996447,-0.022970393,-0.01210167217254643,-0.04587552375793455,-0.03441172943115234,-0.0135795055,0.020816568,0.014897742,0.027832031
0.0,0.0,0.0,0.10451403,-0.021433422,0.9942924,0.9944315,0.015847823,-0.10418702,0.013524287,-0.9996447,-0.022970393,-0.026466882133483915,-0.060240733718872064,0.008683900451659454,-0.0135795055,0.020816568,0.014897742,0.027832031
0.0,0.0,0.0,0.10451403,-0.021433422,0.9942924,0.9944315,0.015847823,-0.10418702,0.013524287,-0.9996447,-0.022970393,-0.014495873832702677,0.02355632438659669,-0.05356534271240321,-0.0135795055,0.020816568,0.014897742,0.027832031
0.0,0.0,0.0,0.10451403,-0.021433422,0.9942924,0.9944315,0.015847823,-0.10418702,0.013524287,-0.9996447,-0.022970393,-0.03364948711395266,0.025950526046752936,0.01826070709228489,-0.0135795055,0.020816568,0.014897742,0.027832031
0.0,0.0,0.0,0.10451403,-0.021433422,0.9942924,0.9944315,0.015847823,-0.10418702,0.013524287,-0.9996447,-0.022970393,0.014234546089172295,-0.029116112136840816,0.1164229751586916,-0.0135795055,0.020816568,0.018012468,0.027832031
0.0,0.0,0.0,0.10451403,-0.021433422,0.9942924,0.9944315,0.015847823,-0.10418702,0.013524287,-0.9996447,-0.022970393,0.02859975605010978,-0.057846532058715816,-0.00568130950927781,-0.0135795055,0.020816568,0.018012468,0.027832031
0.0,0.0,0.0,0.10451403,-0.021433422,0.9942924,0.9944315,0.015847823,-0.10418702,0.013524287,-0.9996447,-0.022970393,0.0046577394485473045,-0.0027798938751220637,0.04938532867431533,-0.0135795055,0.020816568,0.018012468,0.027893066
0.0,0.0,0.0,0.10451403,-0.021433422,0.9942924,0.9944315,0.015847823,-0.10418702,0.013524287,-0.9996447,-0.022970393,-0.016890075492858925,-0.021933507156372045,0.003895497131347625,-0.0135795055,0.020816568,0.018012468,0.027832031
0.0,0.0,0.0,0.10451403,-0.021433422,0.9942924,0.9944315,0.015847823,-0.10418702,0.013524287,-0.9996447,-0.022970393,-0.014495873832702677,0.025950526046752936,0.06614474029541029,-0.0135795055,0.020816568,0.018012468,0.027770996
0.0,0.0,0.0,0.10451403,-0.021433422,0.9942924,0.9944315,0.015847823,-0.10418702,0.013524287,-0.9996447,-0.022970393,-0.007313268852233934,0.045104139328002946,0.011078102111815369,-0.0135795055,0.020816568,0.018012468,0.027770996
0.0,0.0,0.0,0.10451403,-0.021433422,0.9942924,0.9944315,0.015847823,-0.10418702,0.013524287,-0.9996447,-0.022970393,-0.0408320920944214,-0.007568297195434559,-0.039200132751465944,-0.0135795055,0.020816568,0.018012468,0.027832031
0.0,0.0,0.0,0.10451403,-0.021433422,0.9942924,0.9944315,0.015847823,-0.10418702,0.013524287,-0.9996447,-0.022970393,0.014234546089172295,0.057075147628784184,0.020654908752440804,-0.0135795055,0.020816568,0.018012468,0.027832031
0.0,0.0,0.0,0.10451403,-0.021433422,0.9942924,0.9944315,0.015847823,-0.10418702,0.013524287,-0.9996447,-0.022970393,-0.016890075492858925,0.01158531608581545,0.03502011871337807,-0.0135795055,0.020816568,0.018012468,0.027770996
0.0,0.0,0.0,0.10451403,-0.021433422,0.9942924,0.9944315,0.015847823,-0.10418702,0.013524287,-0.9996447,-0.022970393,0.007051941108703552,0.013979517745971698,-0.01765231781005916,-0.0135795055,0.020816568,0.018012468,0.027770996
0.0,0.0,0.0,0.10451403,-0.021433422,0.9942924,0.9944315,0.015847823,-0.10418702,0.013524287,-0.9996447,-0.022970393,0.01902294940948479,-0.041087120437622054,-0.0032871078491218952,-0.0135795055,0.020816568,0.018012468,0.027832031
0.0,0.0,0.0,0.10451403,-0.021433422,0.9942924,0.9944315,0.015847823,-0.10418702,0.013524287,-0.9996447,-0.022970393,0.0094461427688598,0.01158531608581545,0.02304911041259672,-0.0135795055,0.020816568,0.018012468,0.027709961
0.0,0.0,0.0,0.10451403,-0.021433422,0.9942924,0.9944315,0.015847823,-0.10418702,0.013524287,-0.9996447,-0.022970393,-0.009707470512390182,0.025950526046752936,0.01826070709228489,-0.0135795055,0.020816568,0.018012468,0.027709961
0.0,0.0,0.0,0.10451403,-0.021433422,0.9942924,0.9944315,0.015847823,-0.10418702,0.013524287,-0.9996447,-0.022970393,0.0693011842727661,0.030738929367065432,-0.01765231781005916,-0.0135795055,0.020816568,0.018012468,0.027832031
0.0,0.0,0.0,0.10451403,-0.021433422,0.9942924,0.9944315,0.015847823,-0.10418702,0.013524287,-0.9996447,-0.022970393,-0.01210167217254643,0.016373719406127946,0.01826070709228489,-0.0135795055,0.020816568,0.018012468,0.028381348
0.0,0.0,0.0,0.10451403,-0.021433422,0.9942924,0.9944315,0.015847823,-0.10418702,0.013524287,-0.9996447,-0.022970393,-0.004919067192077686,-0.0027798938751220637,-0.01765231781005916,-0.0135795055,0.020816568,0.018012468,0.027832031
0.0,0.0,0.0,0.10451403,-0.021433422,0.9942924,0.9944315,0.015847823,-0.10418702,0.013524287,-0.9996447,-0.022970393,0.035782361030578524,-0.0674233386993408,0.003895497131347625,-0.0135795055,0.020816568,0.018012468,0.027893066
0.0,0.0,0.0,0.10451403,-0.021433422,0.9942924,0.9944315,0.015847823,-0.10418702,0.013524287,-0.9996447,-0.022970393,0.10042580585479732,0.03552733268737793,0.020654908752440804,-0.0135795055,0.020816568,0.018012468,0.027832031
0.0,0.0,0.0,0.10451403,-0.021433422,0.9942924,0.9944315,0.015847823,-0.10418702,0.013524287,-0.9996447,-0.022970393,-0.04322629375457765,-0.005174095535278311,0.00628969879150354,-0.0135795055,0.020816568,0.018012468,0.027893066
0.0,0.0,0.0,0.10451403,-0.021433422,0.9942924,0.9944315,0.015847823,-0.10418702,0.013524287,-0.9996447,-0.022970393,-0.03125528545379641,-0.00038569221496581596,-0.03201752777099642,-0.0135795055,0.020816568,0.018012468,0.027893066
0.0,0.0,0.0,0.10451403,-0.021433422,0.9942924,0.9944315,0.015847823,-0.10418702,0.013524287,-0.9996447,-0.022970393,-0.019284277153015172,-0.06981754035949705,-0.03441172943115234,-0.0135795055,0.020816568,0.018012468,0.027832031
0.0,0.0,0.0,0.10451403,-0.021433422,0.9942924,0.9944315,0.015847823,-0.10418702,0.013524287,-0.9996447,-0.022970393,-0.014495873832702677,0.009191114425659203,0.0015012954711917104,-0.0135795055,0.020816568,0.018012468,0.027832031
0.0,0.0,0.0,0.10451403,-0.021433422,0.9942924,0.9944315,0.015847823,-0.10418702,0.013524287,-0.9996447,-0.022970393,0.007051941108703552,0.016373719406127946,0.00628969879150354,-0.0135795055,0.020816568,0.018012468,0.027770996
0.0,0.0,0.0,0.10451403,-0.021433422,0.9942924,0.9944315,0.015847823,-0.10418702,0.013524287,-0.9996447,-0.022970393,-0.06477410869598388,-0.00038569221496581596,0.03741432037353398,-0.0135795055,0.020816568,0.018012468,0.027770996
0.0,0.0,0.0,0.10451403,-0.021433422,0.9942924,0.9944315,0.015847823,-0.10418702,0.013524287,-0.9996447,-0.022970393,-0.01210167217254643,-0.019539305496215797,-0.015258116149903245,-0.0135795055,0.020816568,0.018012468,0.027832031
0.0,0.0,0.0,0.10451403,-0.021433422,0.9942924,0.9944315,0.015847823,-0.10418702,0.013524287,-0.9996447,-0.022970393,0.02141715106964104,-0.00038569221496581596,0.04938532867431533,-0.0135795055,0.020816568,0.018012468,0.027832031
0.0,0.0,0.0,0.10451403,-0.021433422,0.9942924,0.9944315,0.015847823,-0.10418702,0.013524287,-0.9996447,-0.022970393,-0.004919067192077686,-0.029116112136840816,-0.03201752777099642,-0.0135795055,0.020816568,0.018012468,0.027832031
0.0,0.0,0.0,0.10451403,-0.021433422,0.9942924,0.9944315,0.015847823,-0.10418702,0.013524287,-0.9996447,-0.022970393,-0.014495873832702677,0.006796912765502927,0.02304911041259672,-0.0135795055,0.020816568,0.018012468,0.027893066
0.0,0.0,0.0,0.10451403,-0.021433422,0.9942924,0.9944315,0.015847823,-0.10418702,0.013524287,-0.9996447,-0.022970393,-0.009707470512390182,0.01158531608581545,0.05656793365478485,-0.0135795055,0.020816568,0.018012468,0.027893066
0.0,0.0,0.0,0.10451403,-0.021433422,0.9942924,0.9944315,0.015847823,-0.10418702,0.013524287,-0.9996447,-0.022970393,0.023811352729797286,0.030738929367065432,0.0445969253540035,-0.0135795055,0.020816568,0.018012468,0.027832031
0.0,0.0,0.0,0.10451403,-0.021433422,0.9942924,0.9944315,0.015847823,-0.10418702,0.013524287,-0.9996447,-0.022970393,-0.028861083793640163,-0.02672191047668457,0.04699112701415942,-0.0135795055,0.020816568,0.018012468,0.027770996
0.0,0.0,0.0,0.10451403,-0.021433422,0.9942924,0.9944315,0.015847823,-0.10418702,0.013524287,-0.9996447,-0.022970393,-0.024072680473327668,-0.012356700515747054,0.07332734527587803,-0.0135795055,0.020816568,0.018012468,0.027832031
0.0,0.0,0.0,0.10451403,-0.021433422,0.9942924,0.9944315,0.015847823,-0.10418702,0.013524287,-0.9996447,-0.022970393,0.07169538593292235,-0.03629871711730956,0.04938532867431533,-0.0135795055,0.020816568,0.018012468,0.027832031
0.0,0.0,0.0,0.10451403,-0.021433422,0.9942924,0.9944315,0.015847823,-0.10418702,0.013524287,-0.9996447,-0.022970393,0.045359167671203515,0.028344727706909184,0.0015012954711917104,-0.0135795055,0.020816568,0.018012468,0.027832031
0.0,0.0,0.0,0.10451403,-0.021433422,0.9942924,0.9944315,0.015847823,-0.10418702,0.013524287,-0.9996447,-0.022970393,0.0046577394485473045,0.01158531608581545,0.0685389419555662,-0.0135795055,0.020816568,0.018012468,0.027893066
0.0,0.0,0.0,0.10451403,-0.021433422,0.9942924,0.9944315,0.015847823,-0.10418702,0.013524287,-0.9996447,-0.022970393,0.045359167671203515,-0.06981754035949705,0.00628969879150354,-0.0135795055,0.020816568,0.018012468,0.027954102
0.0,0.0,0.0,0.10451403,-0.021433422,0.9942924,0.9944315,0.015847823,-0.10418702,0.013524287,-0.9996447,-0.022970393,-0.004919067192077686,0.013979517745971698,-0.096660972595215,-0.0135795055,0.020816568,0.015161906,0.027832031
0.0,0.0,0.0,0.10451403,-0.021433422,0.9942924,0.9944315,0.015847823,-0.10418702,0.013524287,-0.9996447,-0.022970393,-0.03364948711395266,-0.00038569221496581596,0.015866505432128974,-0.0135795055,0.020816568,0.015161906,0.028503418
0.0,0.0,0.0,0.10451403,-0.021433422,0.9942924,0.9944315,0.015847823,-0.10418702,0.013524287,-0.9996447,-0.022970393,0.02859975605010978,0.013979517745971698,0.0015012954711917104,-0.0135795055,0.020816568,0.015161906,0.027893066
0.0,0.0,0.0,0.10451403,-0.021433422,0.9942924,0.9944315,0.015847823,-0.10418702,0.013524287,-0.9996447,-0.022970393,0.08366639423370359,-0.057846532058715816,-0.02244072113037099,-0.0135795055,0.020816568,0.015161906,0.027832031
0.0,0.0,0.0,0.10451403,-0.021433422,0.9942924,0.9944315,0.015847823,-0.10418702,0.013524287,-0.9996447,-0.022970393,0.02141715106964104,-0.0434813220977783,0.0637505386352526,-0.0135795055,0.020816568,0.015161906,0.027832031
0.0,0.0,0.0,0.10451403,-0.021433422,0.9942924,0.9944315,0.015847823,-0.10418702,0.013524287,-0.9996447,-0.022970393,0.03817656269073477,-0.0482697254180908,-0.0008929061889659806,-0.0135795055,0.020816568,0.015161906,0.027832031
0.0,0.0,0.0,0.10451403,-0.021433422,0.9942924,0.9944315,0.015847823,-0.10418702,0.013524287,-0.9996447,-0.022970393,0.03338815937042228,0.02116212272644044,0.05656793365478485,-0.0135795055,0.020816568,0.015161906,0.027770996
0.0,0.0,0.0,0.10451403,-0.021433422,0.9942924,0.9944315,0.015847823,-0.10418702,0.013524287,-0.9996447,-0.022970393,-0.03364948711395266,0.0020085094451904317,-0.020046519470215074,-0.0135795055,0.020816568,0.015161906,0.027770996
0.0,0.0,0.0,0.10451403,-0.021433422,0.9942924,0.9944315,0.015847823,-0.10418702,0.013524287,-0.9996447,-0.022970393,0.011840344429016048,0.03313313102722168,0.10205776519775256,-0.0135795055,0.020816568,0.015161906,0.027832031
0.0,0.0,0.0,0.10451403,-0.021433422,0.9942924,0.9944315,0.015847823,-0.10418702,0.013524287,-0.9996447,-0.022970393,0.03099395771026603,-0.03869291877746581,-0.02244072113037099,-0.0135795055,0.020816568,0.015161906,0.027832031
0.0,0.0,0.0,0.10451403,-0.021433422,0.9942924,0.9944315,0.015847823,-0.10418702,0.013524287,-0.9996447,-0.022970393,0.03099395771026603,-0.021933507156372045,0.027837513732910324,-0.0135795055,0.020816568,0.015161906,0.027832031
0.0,0.0,0.0,0.10451403,-0.021433422,0.9942924,0.9944315,0.015847823,-0.10418702,0.013524287,-0.9996447,-0.022970393,-0.009707470512390182,-0.007568297195434559,-0.03201752777099642,-0.0135795055,0.020816568,0.015161906,0.027832031
0.0,0.0,0.0,0.10451403,-0.021433422,0.9942924,0.9944315,0.015847823,-0.10418702,0.013524287,-0.9996447,-0.022970393,0.04057076435089102,-0.03390451545715331,-0.0008929061889659806,-0.0135795055,0.020816568,0.015161906,0.027832031
0.0,0.0,0.0,0.10451403,-0.021433422,0.9942924,0.9944315,0.015847823,-0.10418702,0.013524287,-0.9996447,-0.022970393,0.04296496601104727,-0.014750902175903302,-0.03680593109130825,-0.0135795055,0.020816568,0.015161906,0.027770996
0.0,0.0,0.0,0.10451403,-0.021433422,0.9942924,0.9944315,0.015847823,-0.10418702,0.013524287,-0.9996447,-0.022970393,-0.038437890434265154,-0.01714510383605955,0.025443312072752633,-0.0135795055,0.020816568,0.015161906,0.027770996
0.0,0.0,0.0,0.10451403,-0.021433422,0.9942924,0.9944315,0.015847823,-0.10418702,0.013524287,-0.9996447,-0.022970393,-0.0001306638717651909,0.006796912765502927,0.025443312072752633,-0.0135795055,0.020816568,0.015161906,0.027770996
0.0,0.0,0.0,0.10451403,-0.021433422,0.9942924,0.9944315,0.015847823,-0.10418702,0.013524287,-0.9996447,-0.022970393,0.02859975605010978,-0.031510313796997064,-0.06314214935302864,-0.0135795055,0.020816568,0.015161906,0.027770996
0.0,0.0,0.0,0.10451403,-0.021433422,0.9942924,0.9944315,0.015847823,-0.10418702,0.013524287,-0.9996447,-0.022970393,0.05972437763214111,-0.005174095535278311,-0.008075511169433724,-0.0135795055,0.020816568,0.015161906,0.027709961
0.0,0.0,0.0,0.10451403,-0.021433422,0.9942924,0.9944315,0.015847823,-0.10418702,0.013524287,-0.9996447,-0.022970393,0.01902294940948479,0.057075147628784184,-0.02244072113037099,-0.0135795055,0.020816568,0.015161906,0.028076172
0.0,0.0,0.0,0.10451403,-0.021433422,0.9942924,0.9944315,0.015847823,-0.10418702,0.013524287,-0.9996447,-0.022970393,0.054935974311828506,0.004402711105346679,0.015866505432128974,-0.0135795055,0.020816568,0.015161906,0.027832031
0.0,0.0,0.0,0.10451403,-0.021433422,0.9942924,0.9944315,0.015847823,-0.10418702,0.013524287,-0.9996447,-0.022970393,-0.06716831035614024,-0.014750902175903302,-0.05356534271240321,-0.0135795055,0.020816568,0.015161906,0.027770996
0.0,0.0,0.0,0.10451403,-0.021433422,0.9942924,0.9944315,0.015847823,-0.10418702,0.013524287,-0.9996447,-0.022970393,0.04296496601104727,-0.00038569221496581596,0.04699112701415942,-0.0135795055,0.020816568,0.015161906,0.027832031
0.0,0.0,0.0,0.10451403,-0.021433422,0.9942924,0.9944315,0.015847823,-0.10418702,0.013524287,-0.9996447,-0.022970393,-0.0408320920944214,-0.02672191047668457,0.00628969879150354,-0.0135795055,0.020816568,0.015161906,0.027832031
0.0,0.0,0.0,0.10451403,-0.021433422,0.9942924,0.9944315,0.015847823,-0.10418702,0.013524287,-0.9996447,-0.022970393,0.016628747749328543,-0.03869291877746581,0.011078102111815369,-0.0135795055,0.020816568,0.015161906,0.027832031
0.0,0.0,0.0,0.10451403,-0.021433422,0.9942924,0.9944315,0.015847823,-0.10418702,0.013524287,-0.9996447,-0.022970393,-0.019284277153015172,-0.009962498855590807,0.003895497131347625,-0.0135795055,0.020816568,0.015161906,0.027893066
0.0,0.0,0.0,0.10451403,-0.021433422,0.9942924,0.9944315,0.015847823,-0.10418702,0.013524287,-0.9996447,-0.022970393,-0.007313268852233934,0.009191114425659203,-0.01286391448974733,-0.0135795055,0.020816568,0.015161906,0.028381348
0.0,0.0,0.0,0.10451403,-0.021433422,0.9942924,0.9944315,0.015847823,-0.10418702,0.013524287,-0.9996447,-0.022970393,0.023811352729797286,-0.05305812873840332,-0.00568130950927781,-0.0135795055,0.020816568,0.015161906,0.027893066
0.0,0.0,0.0,0.10451403,-0.021433422,0.9942924,0.9944315,0.015847823,-0.10418702,0.013524287,-0.9996447,-0.022970393,0.04296496601104727,0.02116212272644044,-0.020046519470215074,-0.0135795055,0.020816568,0.015161906,0.027832031
0.0,0.0,0.0,0.10451403,-0.021433422,0.9942924,0.9944315,0.015847823,-0.10418702,0.013524287,-0.9996447,-0.022970393,0.03338815937042228,-0.031510313796997064,0.02304911041259672,-0.0135795055,0.020816568,0.015161906,0.027832031
0.0,0.0,0.0,0.10451403,-0.021433422,0.9942924,0.9944315,0.015847823,-0.10418702,0.013524287,-0.9996447,-0.022970393,0.011840344429016048,-0.11291317024230957,0.0015012954711917104,-0.0135795055,0.017740985,0.015161906,0.027893066
0.0,0.0,0.0,0.10451403,-0.021433422,0.9942924,0.9944315,0.015847823,-0.10418702,0.013524287,-0.9996447,-0.022970393,-0.016890075492858925,-0.03390451545715331,-0.02244072113037099,-0.0135795055,0.017740985,0.015161906,0.027893066
0.0,0.0,0.0,0.10451403,-0.021433422,0.9942924,0.9944315,0.015847823,-0.10418702,0.013524287,-0.9996447,-0.022970393,0.02141715106964104,-0.029116112136840816,-0.0487769393920896,-0.0135795055,0.017740985,0.015161906,0.028015137
0.0,0.0,0.0,0.10451403,-0.021433422,0.9942924,0.9944315,0.015847823,-0.10418702,0.013524287,-0.9996447,-0.022970393,0.057330175971984865,-0.057846532058715816,-0.08947836761474726,-0.0135795055,0.017740985,0.015161906,0.028381348
0.0,0.0,0.0,0.10451403,-0.021433422,0.9942924,0.9944315,0.015847823,-0.10418702,0.013524287,-0.9996447,-0.022970393,0.02141715106964104,0.05946934928894043,0.025443312072752633,-0.0135795055,0.017740985,0.015161906,0.028381348
0.0,0.0,0.0,0.10451403,-0.021433422,0.9942924,0.9944315,0.015847823,-0.10418702,0.013524287,-0.9996447,-0.022970393,0.03099395771026603,-0.007568297195434559,-0.04159433441162186,-0.0135795055,0.017740985,0.015161906,0.028320312
0.0,0.0,0.0,0.10451403,-0.021433422,0.9942924,0.9944315,0.015847823,-0.10418702,0.013524287,-0.9996447,-0.022970393,0.002263537788391057,-0.0770001453399658,-0.03680593109130825,-0.0135795055,0.017740985,0.015161906,0.028137207
0.0,0.0,0.0,0.10451403,-0.021433422,0.9942924,0.9944315,0.015847823,-0.10418702,0.013524287,-0.9996447,-0.022970393,-0.08392772197723397,-0.05305812873840332,-0.02244072113037099,-0.0135795055,0.017740985,0.015161906,0.027770996
0.0,0.0,0.0,0.10451403,-0.021433422,0.9942924,0.9944315,0.015847823,-0.10418702,0.013524287,-0.9996447,-0.022970393,0.011840344429016048,-0.009962498855590807,0.008683900451659454,-0.0135795055,0.017740985,0.015161906,0.027770996
0.0,0.0,0.0,0.10451403,-0.021433422,0.9942924,0.9944315,0.015847823,-0.10418702,0.013524287,-0.9996447,-0.022970393,-0.019284277153015172,-0.02432770881652832,-0.027229124450684594,-0.0135795055,0.017740985,0.015161906,0.027709961
0.0,0.0,0.0,0.10451403,-0.021433422,0.9942924,0.9944315,0.015847823,-0.10418702,0.013524287,-0.9996447,-0.022970393,-0.014495873832702677,0.037921534347534175,0.03262591705322215,-0.0135795055,0.017740985,0.015161906,0.027770996
0.0,0.0,0.0,0.10451403,-0.021433422,0.9942924,0.9944315,0.015847823,-0.10418702,0.013524287,-0.9996447,-0.022970393,-0.024072680473327668,0.013979517745971698,0.020654908752440804,-0.0135795055,0.017740985,0.015161906,0.027770996
0.0,0.0,0.0,0.10451403,-0.021433422,0.9942924,0.9944315,0.015847823,-0.10418702,0.013524287,-0.9996447,-0.022970393,0.0094461427688598,-0.007568297195434559,-0.04638273773193369,-0.0135795055,0.017740985,0.015161906,0.027832031
0.0,0.0,0.0,0.10451403,-0.021433422,0.9942924,0.9944315,0.015847823,-0.10418702,0.013524287,-0.9996447,-0.022970393,0.0046577394485473045,0.06425775260925294,-0.01286391448974733,-0.0135795055,0.017740985,0.015161906,0.027832031
0.0,0.0,0.0,0.10451403,-0.021433422,0.9942924,0.9944315,0.015847823,-0.10418702,0.013524287,-0.9996447,-0.022970393,-0.009707470512390182,-0.01714510383605955,0.03023171539306624,-0.0135795055,0.017740985,0.015161906,0.027770996
0.0,0.0,0.0,0.10451403,-0.021433422,0.9942924,0.9944315,0.015847823,-0.10418702,0.013524287,-0.9996447,-0.022970393,0.02141715106964104,-0.007568297195434559,-0.0727189559936523,-0.0135795055,0.017740985,0.015161906,0.027832031
0.0,0.0,0.0,0.10451403,-0.021433422,0.9942924,0.9944315,0.015847823,-0.10418702,0.013524287,-0.9996447,-0.022970393,-0.05280310039520264,-0.00038569221496581596,0.01826070709228489,-0.0135795055,0.017740985,0.015161906,0.027893066
0.0,0.0,0.0,0.10451403,-0.021433422,0.9942924,0.9944315,0.015847823,-0.10418702,0.013524287,-0.9996447,-0.022970393,0.011840344429016048,-0.05305812873840332,-0.008075511169433724,-0.0135795055,0.017740985,0.015161906,0.027832031
0.0,0.0,0.0,0.10451403,-0.021433422,0.9942924,0.9944315,0.015847823,-0.10418702,0.013524287,-0.9996447,-0.022970393,0.007051941108703552,0.030738929367065432,-0.06074794769287095,-0.0135795055,0.017740985,0.015161906,0.027832031
0.0,0.0,0.0,0.10451403,-0.021433422,0.9942924,0.9944315,0.015847823,-0.10418702,0.013524287,-0.9996447,-0.022970393,-0.0025248655319214386,0.004402711105346679,0.0015012954711917104,-0.0135795055,0.017740985,0.015161906,0.028320312
0.0,0.0,0.0,0.10451403,-0.021433422,0.9942924,0.9944315,0.015847823,-0.10418702,0.013524287,-0.9996447,-0.022970393,0.026205554389953534,0.01158531608581545,0.03980852203369167,-0.0135795055,0.017740985,0.015161906,0.027832031
0.0,0.0,0.0,0.10451403,-0.021433422,0.9942924,0.9944315,0.015847823,-0.10418702,0.013524287,-0.9996447,-0.022970393,-0.0408320920944214,-0.02432770881652832,0.0685389419555662,-0.0135795055,0.017740985,0.015161906,0.027893066
0.0,0.0,0.0,0.10451403,-0.021433422,0.9942924,0.9944315,0.015847823,-0.10418702,0.013524287,-0.9996447,-0.022970393,-0.07435091533660898,-0.03869291877746581,0.09726936187744073,-0.0135795055,0.017740985,0.015161906,0.027770996
0.0,0.0,0.0,0.10451403,-0.021433422,0.9942924,0.9944315,0.015847823,-0.10418702,0.013524287,-0.9996447,-0.022970393,0.007051941108703552,-0.060240733718872064,0.05177953033447302,-0.0135795055,0.017740985,0.015161906,0.027770996
0.0,0.0,0.0,0.10451403,-0.021433422,0.9942924,0.9944315,0.015847823,-0.10418702,0.013524287,-0.9996447,-0.022970393,-0.028861083793640163,-0.057846532058715816,0.04220272369384759,-0.0135795055,0.017740985,0.015161906,0.027770996
0.0,0.0,0.0,0.10451403,-0.021433422,0.9942924,0.9944315,0.015847823,-0.10418702,0.013524287,-0.9996447,-0.022970393,-0.05998570537567138,0.018767921066284193,0.0015012954711917104,-0.0135795055,0.017740985,0.015161906,0.027770996
0.0,0.0,0.0,0.10451403,-0.021433422,0.9942924,0.9944315,0.015847823,-0.10418702,0.013524287,-0.9996447,-0.022970393,-0.01210167217254643,-0.021933507156372045,-0.01286391448974733,-0.0135795055,0.017740985,0.015161906,0.027770996
0.0,0.0,0.0,0.10451403,-0.021433422,0.9942924,0.9944315,0.015847823,-0.10418702,0.013524287,-0.9996447,-0.022970393,-0.028861083793640163,0.03313313102722168,0.0685389419555662,-0.0135795055,0.017740985,0.015161906,0.027832031
0.0,0.0,0.0,0.10451403,-0.021433422,0.9942924,0.9944315,0.015847823,-0.10418702,0.013524287,-0.9996447,-0.022970393,0.016628747749328543,0.03552733268737793,-0.027229124450684594,-0.0135795055,0.017740985,0.015161906,0.027832031
0.0,0.0,0.0,0.10451403,-0.021433422,0.9942924,0.9944315,0.015847823,-0.10418702,0.013524287,-0.9996447,-0.022970393,-0.019284277153015172,-0.03869291877746581,0.09487516021728482,-0.0135795055,0.017740985,0.015161906,0.027893066
0.0,0.0,0.0,0.10451403,-0.021433422,0.9942924,0.9944315,0.015847823,-0.10418702,0.013524287,-0.9996447,-0.022970393,0.011840344429016048,-0.03629871711730956,0.015866505432128974,-0.0135795055,0.017740985,0.015161906,0.027832031
0.0,0.0,0.0,0.10451403,-0.021433422,0.9942924,0.9944315,0.015847823,-0.10418702,0.013524287,-0.9996447,-0.022970393,-0.03364948711395266,-0.01714510383605955,-0.00568130950927781,-0.0135795055,0.017740985,0.015161906,0.027770996
0.0,0.0,0.0,0.10451403,-0.021433422,0.9942924,0.9944315,0.015847823,-0.10418702,0.013524287,-0.9996447,-0.022970393,0.05254177265167226,-0.05545233039855957,0.027837513732910324,-0.0135795055,0.017740985,0.015161906,0.027770996
0.0,0.0,0.0,0.10451403,-0.021433422,0.9942924,0.9944315,0.015847823,-0.10418702,0.013524287,-0.9996447,-0.022970393,0.016628747749328543,-0.03869291877746581,0.04938532867431533,-0.0135795055,0.017740985,0.015161906,0.027770996
0.0,0.0,0.0,0.10451403,-0.021433422,0.9942924,0.9944315,0.015847823,-0.10418702,0.013524287,-0.9996447,-0.022970393,-0.009707470512390182,-0.050663927078247045,0.02304911041259672,-0.0135795055,0.017740985,0.015161906,0.027709961
0.0,0.0,0.0,0.10451403,-0.021433422,0.9942924,0.9944315,0.015847823,-0.10418702,0.013524287,-0.9996447,-0.022970393,0.04775336933135976,-0.060240733718872064,0.027837513732910324,-0.0135795055,0.017740985,0.015161906,0.027770996
0.0,0.0,0.0,0.10451403,-0.021433422,0.9942924,0.9944315,0.015847823,-0.10418702,0.013524287,-0.9996447,-0.022970393,0.014234546089172295,0.0427099376678467,0.09487516021728482,-0.0135795055,0.017740985,0.015161906,0.027832031
0.0,0.0,0.0,0.10451403,-0.021433422,0.9942924,0.9944315,0.015847823,-0.10418702,0.013524287,-0.9996447,-0.022970393,0.011840344429016048,0.006796912765502927,0.0015012954711917104,-0.0135795055,0.017740985,0.015161906,0.028259277
0.0,0.0,0.0,0.10451403,-0.021433422,0.9942924,0.9944315,0.015847823,-0.10418702,0.013524287,-0.9996447,-0.022970393,0.01902294940948479,-0.007568297195434559,0.015866505432128974,-0.0135795055,0.017740985,0.015161906,0.027770996
0.0,0.0,0.0,0.10451403,-0.021433422,0.9942924,0.9944315,0.015847823,-0.10418702,0.013524287,-0.9996447,-0.022970393,-0.007313268852233934,0.03313313102722168,0.05896213531494077,-0.0135795055,0.017740985,0.015161906,0.027832031
0.0,0.0,0.0,0.10451403,-0.021433422,0.9942924,0.9944315,0.015847823,-0.10418702,0.013524287,-0.9996447,-0.022970393,-0.007313268852233934,-0.005174095535278311,0.00628969879150354,-0.0135795055,0.017740985,0.015161906,0.027832031
0.0,0.0,0.0,0.10451403,-0.021433422,0.9942924,0.9944315,0.015847823,-0.10418702,0.013524287,-0.9996447,-0.022970393,0.016628747749328543,-0.03869291877746581,-0.00568130950927781,-0.0135795055,0.017740985,0.015161906,0.027893066
0.0,0.0,0.0,0.10451403,-0.021433422,0.9942924,0.9944315,0.015847823,-0.10418702,0.013524287,-0.9996447,-0.022970393,0.007051941108703552,-0.03869291877746581,-0.0032871078491218952,-0.0135795055,0.017740985,0.015161906,0.028442383
0.0,0.0,0.0,0.10451403,-0.021433422,0.9942924,0.9944315,0.015847823,-0.10418702,0.013524287,-0.9996447,-0.022970393,0.016628747749328543,0.01158531608581545,0.008683900451659454,-0.0135795055,0.017740985,0.015161906,0.027954102
0.0,0.0,0.0,0.10451403,-0.021433422,0.9942924,0.9944315,0.015847823,-0.10418702,0.013524287,-0.9996447,-0.022970393,0.04775336933135976,0.0020085094451904317,0.04220272369384759,-0.0135795055,0.017740985,0.015161906,0.027893066
0.0,0.0,0.0,0.10451403,-0.021433422,0.9942924,0.9944315,0.015847823,-0.10418702,0.013524287,-0.9996447,-0.022970393,0.045359167671203515,0.05228674430847169,0.025443312072752633,-0.0135795055,0.017740985,0.015161906,0.027954102
0.0,0.0,0.0,0.10451403,-0.021433422,0.9942924,0.9944315,0.015847823,-0.10418702,0.013524287,-0.9996447,-0.022970393,-0.0408320920944214,-0.01714510383605955,0.0015012954711917104,-0.0135795055,0.017740985,0.015161906,0.027832031
0.0,0.0,0.0,0.10451403,-0.021433422,0.9942924,0.9944315,0.015847823,-0.10418702,0.013524287,-0.9996447,-0.022970393,0.0094461427688598,0.006796912765502927,0.00628969879150354,-0.0135795055,0.017740985,0.015161906,0.027770996
0.0,0.0,0.0,0.10451403,-0.021433422,0.9942924,0.9944315,0.015847823,-0.10418702,0.013524287,-0.9996447,-0.022970393,0.011840344429016048,0.028344727706909184,-0.01765231781005916,-0.0135795055,0.017740985,0.015161906,0.027832031
0.0,0.0,0.0,0.10451403,-0.021433422,0.9942924,0.9944315,0.015847823,-0.10418702,0.013524287,-0.9996447,-0.022970393,0.026205554389953534,0.03552733268737793,0.05896213531494077,-0.0135795055,0.017740985,0.015161906,0.027832031
0.0,0.0,0.0,0.10451403,-0.021433422,0.9942924,0.9944315,0.015847823,-0.10418702,0.013524287,-0.9996447,-0.022970393,-0.0025248655319214386,-0.0027798938751220637,-0.09426677093505909,-0.0135795055,0.017740985,0.012370848,0.027770996
0.0,0.0,0.0,0.10451403,-0.021433422,0.9942924,0.9944315,0.015847823,-0.10418702,0.013524287,-0.9996447,-0.022970393,0.04296496601104727,-0.04587552375793455,-0.015258116149903245,-0.0135795055,0.017740985,0.012370848,0.027832031
0.0,0.0,0.0,0.10451403,-0.021433422,0.9942924,0.9944315,0.015847823,-0.10418702,0.013524287,-0.9996447,-0.022970393,0.0046577394485473045,-0.0674233386993408,-0.0008929061889659806,-0.0135795055,0.017740985,0.012370848,0.027832031
0.0,0.0,-0.08632185,0.104565226,-0.021182265,0.9942924,0.99439055,0.01823691,-0.10418702,0.015925907,-0.9996093,-0.022970393,-0.2926455057144165,-0.2777904425621032,0.0015012954711917104,-0.021767007,0.010173619,0.012370848,0.027832031
0.0,0.0,-0.049949724,0.10459457,-0.021036878,0.9942924,0.99436426,0.019619297,-0.10418702,0.017315552,-0.9995862,-0.022970395,-0.3120412330627442,0.11605366041660309,0.08529835357665938,-0.030450694,0.013550763,0.012370848,0.027832031
0.0,0.0,-0.09711359,0.10465105,-0.020754095,0.9942924,0.9943076,0.022306861,-0.10418702,0.020017238,-0.9995358,-0.022970395,0.18788110361099242,0.015558958292007458,-0.08468996429443365,-0.025246678,0.013550763,0.012370848,0.027832031
0.031835597,0.041323002,-0.15826672,0.1035959,-0.019414384,0.99442995,0.9943191,0.026594901,-0.10306512,0.024445824,-0.99945784,-0.022059219,-0.22479527597427373,-0.19420986969470977,-0.22229337768554736,-0.031496875,0.008316047,0.006048453,0.027832031
-0.12004802,0.20093402,-0.2516618,0.09819015,-0.022025418,0.9949239,0.9946671,0.033879664,-0.09741478,0.031562086,-0.9991832,-0.02523461,0.028087344169616668,0.7706416813373566,1.0449536071777334,-0.031496875,0.02977984,0.034788214,0.027770996
-0.4709791,0.119130045,-0.11363426,0.09498108,-0.034761988,0.9948719,0.99486977,0.03827823,-0.093643375,0.034826703,-0.9986623,-0.03821936,-0.539205913734436,-0.10353414769172664,0.5545704666137699,-0.046426676,0.026974814,0.049867008,0.027832031
-0.32735583,0.1816155,0.087944604,0.089855395,-0.04405321,0.99498004,0.9954213,0.036671102,-0.0882716,0.032598365,-0.998356,-0.047146603,-0.7028299799919129,-0.02689911479949947,0.22088475036620991,-0.06581305,0.026974814,0.05562969,0.027832031
-0.12950744,0.4045114,0.07648672,0.078550935,-0.04782037,0.99576247,0.9964273,0.03484866,-0.0769298,0.031022176,-0.9982479,-0.050386924,-0.48987951669693,-0.32622701277732846,0.29822829437255827,-0.07920528,0.018020151,0.063505426,0.027832031
0.0,0.524153,-0.06553778,0.06416665,-0.04769077,0.99679893,0.9973746,0.036659177,-0.062449776,0.033563554,-0.9981893,-0.04991787,-0.25392047071456914,-0.08069313187599181,-0.20352693786621145,-0.085966386,0.018020151,0.057473313,0.027709961
-0.09579992,0.4901791,0.0,0.05059238,-0.050343707,0.99744964,0.99813163,0.03680713,-0.048769217,0.03425804,-0.99805355,-0.052111816,-0.34307130036354067,-0.25513599824905386,-0.5847829238891604,-0.09517193,0.011104727,0.04092322,0.027770996
0.09072381,0.4795206,0.056635268,0.0371976,-0.0478933,0.9981595,0.998751,0.035126805,-0.035534192,0.033360306,-0.9982347,-0.049140118,-0.42412581334114074,0.28489600024223327,-0.45895739288330084,-0.10659621,0.019163795,0.027904155,0.027832031
0.118569136,0.31617907,0.0755541,0.028314425,-0.044667434,0.99860054,0.99909705,0.032923248,-0.026855838,0.031677593,-0.99845934,-0.045559306,-0.9063111716747283,-0.27561830458641046,0.45677873077392483,-0.13131647,0.011660316,0.04030955,0.027832031
0.13055995,-0.081116505,-0.04955003,0.030623015,-0.041006,0.9986895,0.9989877,0.034196317,-0.029228058,0.032952975,-0.9985736,-0.042011682,-0.9708425116539001,0.16583950729370117,-0.3292527893066408,-0.15764232,0.016409151,0.030906113,0.027770996
0.23754463,-0.22247486,-0.123626605,0.037061017,-0.034153957,0.99872917,0.9986567,0.03748183,-0.035776537,0.036212284,-0.99871355,-0.03549719,-0.6169295902252196,0.4277519191741943,-0.5881536788940434,-0.17441793,0.02863435,0.014032843,0.028381348
0.21342978,-0.41232935,-0.20196657,0.048695844,-0.027980905,0.9984216,0.99795324,0.042846452,-0.04747221,0.041450504,-0.99868983,-0.03001007,-0.6817702944755555,0.058407067370414734,-0.7891240463256839,-0.19258222,0.02863435,-0.007996562,0.027832031
0.031435903,-0.35117623,-0.18104926,0.058568645,-0.026839802,0.9979225,0.9972147,0.047816664,-0.05724103,0.046180986,-0.9984955,-0.029565593,-0.33942855572700503,0.26686748740673066,-0.6509326950073246,-0.20115642,0.036082767,-0.026049228,0.027770996
0.08406225,-0.26084545,-0.24140301,0.06596703,-0.024093103,0.9975309,0.99643093,0.05435734,-0.0645814,0.052667156,-0.9982309,-0.027592896,-0.30468321800231934,-0.03830339322090148,-0.5591171386718754,-0.20872767,0.036082767,-0.04147457,0.027770996
0.21036546,-0.09790364,-0.22661434,0.068811126,-0.017841421,0.99747014,0.9958906,0.060240425,-0.06762465,0.058881503,-0.99802446,-0.021913305,-0.29941121931076053,0.09448557527065277,-0.23300408020019603,-0.21611539,0.036082767,-0.047811583,0.027770996
0.13215873,0.0,-0.2358073,0.0689147,-0.013720369,0.9975282,0.99547464,0.066526,-0.067857794,0.06543053,-0.9976904,-0.018242888,-0.08478726406097414,-0.040061799144744864,0.017908349609374596,-0.21611539,0.036082767,-0.047811583,0.027832031
0.0,0.0,-0.23127744,0.069001585,-0.013276487,0.9975282,0.9950258,0.072932415,-0.067857794,0.07185123,-0.99724853,-0.018242888,-0.013677840900421123,0.028103065156936655,0.41055742187499966,-0.21611539,0.036082767,-0.03631185,0.027832031
0.0,-0.11389139,-0.24939689,0.07225373,-0.0127862375,0.9973043,0.9942754,0.0798366,-0.07101071,0.07871343,-0.996726,-0.018481523,0.021747345161437948,-0.19141871551275252,0.8002644042968736,-0.21611539,0.030812131,-0.014077511,0.027832031
0.024241418,-0.16745035,-0.16253012,0.07696676,-0.011773754,0.99696416,0.99356073,0.08429293,-0.075708546,0.08314566,-0.9963715,-0.018185684,0.08821860532760617,0.08753441103696823,0.4439398651123039,-0.21274365,0.030812131,-0.0017951161,0.027893066
0.0,-0.16172141,-0.14600945,0.08149062,-0.011452492,0.9966083,0.99286073,0.08832027,-0.08016926,0.08710258,-0.99602634,-0.018567994,0.1275197759628296,0.18783527598381042,0.26731015014648385,-0.20831749,0.036046572,0.0054917256,0.027770996
-0.053832088,-0.17877501,-0.22807989,0.08651312,-0.012410016,0.99617344,0.99187106,0.09472946,-0.08495937,0.09331262,-0.99542576,-0.020504467,0.3662152480125427,-0.21128124179840085,0.09133179473876929,-0.1973178,0.030226398,0.0054917256,0.027770996
-0.07608171,-0.13374284,-0.22021924,0.09029315,-0.013973794,0.99581724,0.99095064,0.100975916,-0.08843495,0.09931777,-0.9947908,-0.02296476,0.47629502916336053,-0.08106714628934858,-0.21458194885253956,-0.18333136,0.030226398,-0.0005855159,0.027770996
-0.073683545,-0.13880563,-0.18331419,0.09421483,-0.015544919,0.9954306,0.99007344,0.106214635,-0.09204913,0.10429838,-0.99422175,-0.025397593,0.3338153253555298,-0.14472278223037716,-0.35265075988769556,-0.17332993,0.02627678,-0.010469183,0.027832031
0.068207726,-0.14373519,-0.21089306,0.09827147,-0.013096015,0.99507356,0.9890592,0.111832015,-0.09620572,0.11002115,-0.99364084,-0.02394262,0.5206222743034361,-0.464196826672554,-0.7854505157470708,-0.15823847,0.013527777,-0.03224105,0.027770996
0.0766013,-0.070990935,-0.16586089,0.10031399,-0.010488068,0.99490064,0.9883326,0.1162364,-0.098426424,0.11461135,-0.9931662,-0.022025825,0.5923607809066771,-0.021232342898845666,-0.7361407394409181,-0.14101602,0.013527777,-0.05280922,0.028137207
-0.08354266,-0.10616398,-0.1615975,0.1033571,-0.01237553,0.9945674,0.9874898,0.12099367,-0.10111606,0.11908498,-0.9925761,-0.024726253,0.5193768741607665,-0.2259309000253677,0.13330875091552663,-0.12582476,0.0073078987,-0.048907764,0.028320312
0.036898386,0.23957108,-0.20316565,0.09664447,-0.0107535,0.99526095,0.987441,0.12659721,-0.09451728,0.12498085,-0.9918959,-0.022853356,0.8907780094146727,-0.08129227020740509,1.8466254043579102,-0.10013359,0.0073078987,0.0034780712,0.028442383
0.0,-0.021828603,-0.11043671,0.09729427,-0.010449564,0.9952009,0.9869806,0.12969148,-0.09512889,0.12807502,-0.99149936,-0.022931745,0.5334707157135008,0.5219338529586792,0.23582359771728534,-0.08471589,0.022235652,0.010001981,0.028381348
0.0,0.0,-0.05701098,0.097310945,-0.010293139,0.9952009,0.98677087,0.131278,-0.09512889,0.1296688,-0.9912922,-0.022931745,0.8254257507324219,0.180667007625103,-0.00838497161865348,-0.061282787,0.027417932,0.010001981,0.028198242
-0.03238186,0.030131582,0.0,0.09647815,-0.011188133,0.9952723,0.9868501,0.13136311,-0.09418505,0.12968832,-0.9912712,-0.023714669,0.6886426692008971,0.06594472841024399,0.07242851409912099,-0.042099733,0.027417932,0.010001981,0.027770996
-0.025587065,0.0,0.09034277,0.09644889,-0.012137368,0.995264,0.98717654,0.12895365,-0.09409254,0.12720093,-0.9915764,-0.024419155,0.8205650997161864,-0.019599738419055934,0.04137255706787002,-0.019367296,0.027417932,0.010001981,0.027770996
-0.06622259,0.0,0.046376463,0.09643204,-0.014087618,0.9952399,0.9873416,0.12785739,-0.09385692,0.12592658,-0.99169254,-0.026238833,0.6914172080993652,-0.008302263724803916,0.08466655120849609,-0.0003590228,0.027417932,0.010001981,0.027709961
-0.05876164,0.0,0.0,0.09643204,-0.015715271,0.99521554,0.9873416,0.12801072,-0.093647696,0.12592658,-0.9916483,-0.027860668,0.09286679306030265,-0.1768365302801132,-0.0372365081787116,-0.0003590228,0.022600558,0.010001981,0.027832031
0.0,0.0,-0.034361668,0.09644732,-0.015621221,0.99521554,0.9872163,0.12897354,-0.093647696,0.12689361,-0.99152505,-0.027860668,0.13823056077957152,-0.06747899346351621,-0.013294491577148904,0.003378434,0.022600558,0.010001981,0.028381348
0.0,0.0,0.0,0.09644732,-0.015621221,0.99521554,0.9872163,0.12897354,-0.093647696,0.12689361,-0.99152505,-0.027860668,0.03767409105300901,-0.01001815361976624,-0.09948575134277426,0.003378434,0.022600558,0.0070678666,0.027832031
0.0,0.0,0.0,0.09644732,-0.015621221,0.99521554,0.9872163,0.12897354,-0.093647696,0.12689361,-0.99152505,-0.027860668,0.03767409105300901,-0.09142101006507872,0.01304172668456971,0.003378434,0.022600558,0.0070678666,0.027770996
0.0,0.0,0.0,0.09644732,-0.015621221,0.99521554,0.9872163,0.12897354,-0.093647696,0.12689361,-0.99152505,-0.027860668,0.0424624943733215,-0.03874857354164121,0.01783013000488154,0.003378434,0.022600558,0.0070678666,0.027832031
0.0,0.0,0.0,0.09644732,-0.015621221,0.99521554,0.9872163,0.12897354,-0.093647696,0.12689361,-0.99152505,-0.027860668,0.0927407292366027,-0.017200758600234983,0.02501273498535106,0.003378434,0.022600558,0.0070678666,0.027770996
0.0,0.0,0.0,0.09644732,-0.015621221,0.99521554,0.9872163,0.12897354,-0.093647696,0.12689361,-0.99152505,-0.027860668,0.0424624943733215,-0.026777565240859974,0.01783013000488154,0.003378434,0.022600558,0.0070678666,0.027770996
0.0,0.0,0.0,0.09644732,-0.015621221,0.99521554,0.9872163,0.12897354,-0.093647696,0.12689361,-0.99152505,-0.027860668,0.11428854417800893,-0.07226739678382874,-0.013294491577148904,0.0063254833,0.022600558,0.0070678666,0.027770996
0.0,0.0,0.0,0.09644732,-0.015621221,0.99521554,0.9872163,0.12897354,-0.093647696,0.12689361,-0.99152505,-0.027860668,0.10950014085769644,-0.06508479180335996,0.022618533325195145,0.009125483,0.022600558,0.0070678666,0.027770996
0.0,0.0,0.0,0.09644732,-0.015621221,0.99521554,0.9872163,0.12897354,-0.093647696,0.12689361,-0.99152505,-0.027860668,0.04485669603347775,-0.06747899346351621,-0.018082894897460733,0.009125483,0.022600558,0.0070678666,0.027770996
0.0,0.0,0.0,0.09644732,-0.015621221,0.99521554,0.9872163,0.12897354,-0.093647696,0.12689361,-0.99152505,-0.027860668,0.10710593919754019,-0.08663260674476622,-0.044419113159179346,0.009125483,0.022600558,0.0070678666,0.027832031
0.0,0.0,0.0,0.09644732,-0.015621221,0.99521554,0.9872163,0.12897354,-0.093647696,0.12689361,-0.99152505,-0.027860668,0.016126276111602778,-0.09381521172523496,-0.044419113159179346,0.009125483,0.022600558,0.0070678666,0.027770996
0.0,0.0,0.0,0.09644732,-0.015621221,0.99521554,0.9872163,0.12897354,-0.093647696,0.12689361,-0.99152505,-0.027860668,0.08076972093582147,-0.06029638848304747,-0.0372365081787116,0.009125483,0.022600558,0.0070678666,0.027770996
0.0,0.0,0.0,0.09644732,-0.015621221,0.99521554,0.9872163,0.12897354,-0.093647696,0.12689361,-0.99152505,-0.027860668,0.0975291325569152,-0.036354371881484965,0.0010707183837883605,0.009125483,0.022600558,0.0070678666,0.027770996
0.0,0.0,0.0,0.09644732,-0.015621221,0.99521554,0.9872163,0.12897354,-0.093647696,0.12689361,-0.99152505,-0.027860668,0.07119291429519647,-0.07705580010414123,0.005859121704101966,0.009125483,0.022600558,0.0070678666,0.027770996
0.0,0.0,0.0,0.09644732,-0.015621221,0.99521554,0.9872163,0.12897354,-0.093647696,0.12689361,-0.99152505,-0.027860668,-0.003027337169647315,-0.007623951959609965,-0.0803321380615234,0.009125483,0.022600558,0.0070678666,0.027770996
0.0,0.0,0.0,0.09644732,-0.015621221,0.99521554,0.9872163,0.12897354,-0.093647696,0.12689361,-0.99152505,-0.027860668,0.152595770740509,-0.05071958184242248,-0.008506088256837074,0.013054242,0.022600558,0.0070678666,0.027770996
0.0,0.0,0.0,0.09644732,-0.015621221,0.99521554,0.9872163,0.12897354,-0.093647696,0.12689361,-0.99152505,-0.027860668,0.05203930101394649,-0.08423840508460997,-0.030053903198242082,0.013054242,0.022600558,0.0070678666,0.027770996
0.0,0.0,0.0,0.09644732,-0.015621221,0.99521554,0.9872163,0.12897354,-0.093647696,0.12689361,-0.99152505,-0.027860668,0.06401030931472773,-0.053113783502578726,0.022618533325195145,0.013054242,0.022600558,0.0070678666,0.027770996
0.0,0.0,0.0,0.09644732,-0.015621221,0.99521554,0.9872163,0.12897354,-0.093647696,0.12689361,-0.99152505,-0.027860668,0.08076972093582147,-0.07226739678382874,-0.04681331481933704,0.013054242,0.022600558,0.0070678666,0.027770996
0.0,0.0,0.0,0.09644732,-0.015621221,0.99521554,0.9872163,0.12897354,-0.093647696,0.12689361,-0.99152505,-0.027860668,0.06640451097488398,-0.1440934465885162,0.08726197814941372,0.013054242,0.018847711,0.0070678666,0.027832031
0.0,0.0,0.0,0.09644732,-0.015621221,0.99521554,0.9872163,0.12897354,-0.093647696,0.12689361,-0.99152505,-0.027860668,0.06879871263504023,-0.09620941338539121,-0.013294491577148904,0.013054242,0.018847711,0.0070678666,0.027832031
0.0,0.0,0.0,0.09644732,-0.015621221,0.99521554,0.9872163,0.12897354,-0.093647696,0.12689361,-0.99152505,-0.027860668,0.06640451097488398,-0.04832538018226623,-0.04681331481933704,0.013054242,0.018847711,0.0070678666,0.027770996
0.0,0.0,0.0,0.09644732,-0.015621221,0.99521554,0.9872163,0.12897354,-0.093647696,0.12689361,-0.99152505,-0.027860668,0.07119291429519647,-0.09381521172523496,0.010647525024413795,0.013054242,0.018847711,0.0070678666,0.027832031
0.0,0.0,0.0,0.09644732,-0.015621221,0.99521554,0.9872163,0.12897354,-0.093647696,0.12689361,-0.99152505,-0.027860668,0.04485669603347775,0.009135459661483769,0.022618533325195145,0.013054242,0.018847711,0.0070678666,0.028381348
0.0,0.0,0.0,0.09644732,-0.015621221,0.99521554,0.9872163,0.12897354,-0.093647696,0.12689361,-0.99152505,-0.027860668,0.047250897693634,-0.04593117852210998,-0.0611785247802743,0.013054242,0.018847711,0.0070678666,0.027832031
0.0,0.0,0.0,0.09644732,-0.015621221,0.99521554,0.9872163,0.12897354,-0.093647696,0.12689361,-0.99152505,-0.027860668,0.040068292713165254,-0.03396017022132872,0.04177214660644424,0.013054242,0.018847711,0.0070678666,0.027832031
0.0,0.0,0.0,0.09644732,-0.015621221,0.99521554,0.9872163,0.12897354,-0.093647696,0.12689361,-0.99152505,-0.027860668,0.059221905994415236,-0.06747899346351621,0.010647525024413795,0.013054242,0.018847711,0.0070678666,0.027832031
0.0,0.0,0.0,0.09644732,-0.015621221,0.99521554,0.9872163,0.12897354,-0.093647696,0.12689361,-0.99152505,-0.027860668,0.047250897693634,-0.14888184990882875,0.02022433166503923,0.013054242,0.015023447,0.0070678666,0.027832031
0.0,0.0,0.0,0.09644732,-0.015621221,0.99521554,0.9872163,0.12897354,-0.093647696,0.12689361,-0.99152505,-0.027860668,0.08795232591629021,-0.07466159844398498,0.005859121704101966,0.013054242,0.015023447,0.0070678666,0.027770996
0.0,0.0,0.0,0.09644732,-0.015621221,0.99521554,0.9872163,0.12897354,-0.093647696,0.12689361,-0.99152505,-0.027860668,0.08555812425613396,0.018712266302108774,-0.010900289916992989,0.013054242,0.015023447,0.0070678666,0.027832031
0.0,0.0,0.0,0.09644732,-0.015621221,0.99521554,0.9872163,0.12897354,-0.093647696,0.12689361,-0.99152505,-0.027860668,0.09034652757644646,-0.06987319512367246,0.09683878479003916,0.013054242,0.015023447,0.0070678666,0.027893066
0.0,0.0,0.0,0.09644732,-0.015621221,0.99521554,0.9872163,0.12897354,-0.093647696,0.12689361,-0.99152505,-0.027860668,0.07119291429519647,-0.08663260674476622,0.01783013000488154,0.013054242,0.015023447,0.0070678666,0.027832031
0.0,0.0,0.0,0.09644732,-0.015621221,0.99521554,0.9872163,0.12897354,-0.093647696,0.12689361,-0.99152505,-0.027860668,0.10950014085769644,-0.024383363580703726,0.022618533325195145,0.013054242,0.015023447,0.0070678666,0.027770996
0.0,0.0,0.0,0.09644732,-0.015621221,0.99521554,0.9872163,0.12897354,-0.093647696,0.12689361,-0.99152505,-0.027860668,0.018520477771759025,-0.01959496026039123,-0.027659701538086168,0.013054242,0.015023447,0.0070678666,0.027832031
0.0,0.0,0.0,0.09644732,-0.015621221,0.99521554,0.9872163,0.12897354,-0.093647696,0.12689361,-0.99152505,-0.027860668,0.11668274583816518,-0.06747899346351621,0.003464920043944275,0.015848363,0.015023447,0.0070678666,0.027832031
0.0,0.0,0.0,0.09644732,-0.015621221,0.99521554,0.9872163,0.12897354,-0.093647696,0.12689361,-0.99152505,-0.027860668,0.12625955247879028,-0.10099781670570374,-0.013294491577148904,0.018887045,0.015023447,0.0070678666,0.027770996
0.0,0.0,0.0,0.09644732,-0.015621221,0.99521554,0.9872163,0.12897354,-0.093647696,0.12689361,-0.99152505,-0.027860668,0.10710593919754019,-0.08902680840492247,0.00825332336425788,0.018887045,0.015023447,0.0070678666,0.027770996
0.0,0.0,0.0,0.09644732,-0.015621221,0.99521554,0.9872163,0.12897354,-0.093647696,0.12689361,-0.99152505,-0.027860668,0.0424624943733215,-0.06747899346351621,0.0800793731689442,0.018887045,0.015023447,0.0070678666,0.027770996
-0.022922441,0.0,-0.1765194,0.09652514,-0.01578353,0.9952054,0.9865648,0.13392484,-0.093563095,0.13180597,-0.99086577,-0.028498575,-0.3963182918548584,-3.2480342496871946,0.20944923248291047,0.0073290085,-0.07532835,0.012770965,0.028076172
0.0,0.0,-0.8846435,0.096889555,-0.013365529,0.9952054,0.9829085,0.1585465,-0.093563095,0.15653582,-0.98726106,-0.028498575,0.44104074783325187,1.9872944492459297,0.04664351959228519,0.019298606,-0.018607816,0.012770965,0.028259277
0.0,0.0268008,0.020529602,0.09612637,-0.013421639,0.99527866,0.9830712,0.15797499,-0.092817,0.15598337,-0.9873519,-0.028379973,-0.13206120738983163,-0.6554413833022117,0.18969194335937445,0.015084804,-0.03651788,0.017932475,0.028320312
-0.054764707,-0.0755208,0.0,0.09826856,-0.014975073,0.9950473,0.9828694,0.15812133,-0.09468624,0.15592028,-0.9873062,-0.030256882,0.17588119630813592,0.7124896539092064,0.5770667129516589,0.019598488,-0.015657857,0.03408768,0.028503418
0.0,-0.17198022,0.30337954,0.10296122,-0.015835831,0.99455935,0.98371536,0.14970928,-0.09945487,0.14731984,-0.9886033,-0.030992188,0.5346130845069885,0.3556706225633621,1.052748945617676,0.03410655,-0.0051357187,0.06333634,0.028198242
0.19384478,-0.097503945,0.15282823,0.105608866,-0.010903377,0.994348,0.9840682,0.1449679,-0.10292745,0.14302629,-0.98937625,-0.026039546,0.97964433927536,-1.425597402882576,0.2763767227172842,0.060737062,-0.0442161,0.070576675,0.027893066
0.17785704,0.14817445,-0.28510284,0.10156193,-0.0051453747,0.99481595,0.9833048,0.15228839,-0.099599086,0.15098645,-0.9883227,-0.02052616,1.5948149570465087,0.9737840630173683,-0.06745943298339974,0.10430762,-0.016509604,0.070576675,0.027893066
-0.12244618,0.3926538,-0.29336318,0.090760455,-0.007746646,0.99584264,0.9830549,0.1606183,-0.08834554,0.15926619,-0.9869863,-0.02219316,1.4061792826652524,-0.13721775118112564,-0.24831058044433618,0.1422582,-0.019761646,0.063262686,0.027770996
0.0,0.40730923,-0.15640149,0.07952308,-0.007376825,0.9968057,0.9832844,0.16488878,-0.07722413,0.16379243,-0.9862847,-0.020365974,1.0990347353935241,0.19492015393972395,0.3087778579711902,0.17153196,-0.013819747,0.07137881,0.027770996
0.13042672,0.34429085,0.15829071,0.06975327,-0.004020779,0.99755615,0.98472524,0.16019881,-0.06821038,0.15953305,-0.9870766,-0.015133742,0.9785042358398437,-0.07936364738941191,-0.08766731262207017,0.1978958,-0.013819747,0.06843645,0.028381348
0.29123682,0.23131074,0.26394308,0.063327886,0.0035783602,0.9979863,0.98629636,0.15242654,-0.06313263,0.15234555,-0.98830837,-0.0061235153,0.9405218042373655,0.07343596189916134,-0.016995683288573815,0.22256826,-0.013819747,0.06843645,0.027832031
0.13868704,0.041855928,0.2507532,0.062204577,0.006985155,0.99803895,0.9874061,0.14531228,-0.06255889,0.14546433,-0.9893612,-0.002141892,0.8659899901390076,-0.14619978790283203,0.22438571624755888,0.24500404,-0.017337915,0.07419902,0.027770996
0.0,-0.22513948,0.2205097,0.06848506,0.006584991,0.99763036,0.987867,0.1392641,-0.06873406,0.13938674,-0.9902334,-0.0030324035,0.6849009421348571,-0.5547018811464309,0.005093339538573716,0.26232377,-0.032126278,0.07419902,0.027770996
0.0,-0.34784544,0.34827846,0.07817947,0.005875687,0.99692196,0.9884577,0.12970611,-0.078280166,0.12976685,-0.9915351,-0.00433248,0.9999836314201354,0.17659164128303526,-0.9371664016723633,0.28826332,-0.026633495,0.04783823,0.027770996
-0.13377084,-0.27163717,0.45060006,0.085741974,0.0011474057,0.9963167,0.98938835,0.11763424,-0.08528121,0.11729882,-0.9930563,-0.008950959,0.8633869999885557,0.055179515253007405,-0.9345681182861334,0.3102987,-0.026633495,0.02168104,0.027770996
-0.11178768,-0.22154224,0.37892166,0.0918746,-0.0028883019,0.99576634,0.99003184,0.10747048,-0.09103379,0.106752574,-0.9942041,-0.012733319,0.7002769342422484,-0.11504066413342953,-0.5685051315307623,0.32775512,-0.026633495,0.0057347706,0.027832031
-0.05956103,-0.113092005,0.30711,0.09496652,-0.0053319326,0.9954661,0.9906226,0.09917706,-0.09397324,0.09822636,-0.99505556,-0.014700434,0.7226584049224853,0.21157248693704603,-0.41998213806152407,0.34570462,-0.020199114,-0.0059929644,0.027770996
0.108043864,-0.06952539,0.32389715,0.09685003,-0.0032079492,0.99529374,0.99128973,0.08997799,-0.0961704,0.089246035,-0.9959386,-0.011894379,0.4174246494293212,-0.01903031086027622,-0.2174482238769535,0.35513008,-0.020199114,-0.0120656155,0.027770996
0.15787235,-0.21261574,0.4243535,0.10270633,-2.1288637e-05,0.99471164,0.9916925,0.07785768,-0.102392934,0.07744378,-0.9969645,-0.008017592,0.3547560737609863,0.19889432882731778,0.06268671722412122,0.36277676,-0.014147381,-0.0120656155,0.027770996
0.044892263,-0.1514626,0.44900128,0.10688892,-8.819921e-05,0.99427086,0.99214566,0.06535836,-0.10665466,0.06497454,-0.99786186,-0.007073599,0.5117937534332275,0.051005711706448346,-0.12760821075439566,0.37472448,-0.014147381,-0.015633924,0.027770996
-0.062092423,-0.13627423,0.4146276,0.11063297,-0.0030547827,0.99385655,0.99242306,0.054119226,-0.11030706,0.05344981,-0.9985298,-0.009019017,-0.07214817533493045,0.06110921023786068,0.2636704269409176,0.3704769,-0.014147381,-0.008372524,0.027770996
0.08233024,-0.30134773,0.36213452,0.11892155,-0.0019377728,0.9929017,0.9919575,0.043878652,-0.11872283,0.043337155,-0.999035,-0.007140319,-0.24346394376754765,0.24103792106211183,0.18774881134033095,0.36151674,-0.006982086,-0.0032453074,0.027770996
0.121500224,-0.2725698,0.3173688,0.12644355,0.00033468008,0.9919737,0.99137485,0.03470449,-0.12637894,0.034468263,-0.9993976,-0.004056381,0.1661514873504637,0.10737279807180165,-0.395964808654786,0.36151674,-0.0035385196,-0.014297221,0.027832031
0.06447725,-0.09683779,0.3228313,0.12911078,0.0009636601,0.99162966,0.99130183,0.025607906,-0.129093,0.025517985,-0.99967164,-0.0023509949,-0.01865394229888917,-0.137235264955461,-0.029208975219727762,0.36151674,-0.0068713883,-0.014297221,0.027709961
-0.03917665,-0.10762952,0.27193695,0.13208668,-0.0011103823,0.9912375,0.9910761,0.018232139,-0.13204476,0.017925784,-0.9998332,-0.0035087126,-0.6800571342468262,-0.2996934587419033,0.2900605072021474,0.34044674,-0.014718305,-0.0062741074,0.027893066
0.0,-0.11162646,0.1590901,0.13516614,-0.0017033552,0.9908215,0.9907313,0.013834961,-0.13513006,0.013477825,-0.9999029,-0.0035576022,-0.6264480451583863,0.47373617986142635,-0.27632721405029326,0.32096994,-0.0010605305,-0.014010408,0.027893066
0.06993973,0.0,0.24275932,0.13515805,-0.0006856357,0.9908238,0.9908014,0.00686246,-0.13515025,0.006706848,-0.9999763,-0.0016068621,-0.7245435560226441,0.23310435653850434,-0.17578981781005876,0.298868,0.005850556,-0.018917752,0.027893066
0.0,0.28979927,0.25008702,0.12713635,-0.0016005053,0.99188393,0.99188524,-5.3044874e-05,-0.12713662,-0.00025607413,-0.99999875,-0.0015807884,-0.5171218797683717,-0.06341330860108137,-0.34973492584228527,0.28263327,0.005850556,-0.028628163,0.027893066
0.0,0.4135711,0.21211614,0.11549832,-0.0023293153,0.9933049,0.9932881,-0.0060159652,-0.11551048,-0.0062447246,-0.9999792,-0.0016188587,-0.9909500845909118,-0.22260191684365271,0.5052463714599611,0.25288042,-1.930709e-06,-0.014345745,0.028320312
-0.04117512,0.25116223,0.05143925,0.108517185,-0.0036341506,0.9940879,0.99406505,-0.0073158843,-0.108541444,-0.007667065,-0.9999667,-0.0028186943,-1.3068644764900208,0.3196732787132263,0.18993607482910058,0.21487221,0.009333167,-0.009088647,0.027954102
-0.18812919,0.32990187,0.06716053,0.099373296,-0.009036075,0.9950091,0.9950051,-0.008630393,-0.099451266,-0.009485949,-0.999922,-0.008133321,-1.109340408229828,0.24212466555833814,-1.0434940521240241,0.18268919,0.016433485,-0.038037896,0.027832031
-0.11085506,0.4203659,0.12378381,0.08766275,-0.012437401,0.9960725,0.9960677,-0.0117783025,-0.0878094,-0.012824145,-0.9998533,-0.011355985,-1.3838516830444334,-0.5175131675958633,-0.05388194885254016,0.14297818,0.0024311088,-0.038037896,0.027893066
-0.18812919,0.0,-0.04222231,0.08768078,-0.017650556,0.9959921,0.9960808,-0.010115666,-0.08786785,-0.011626022,-0.99979305,-0.016694441,-1.410336614894867,-0.4074768495798111,0.4232260314941403,0.10202612,-0.008637784,-0.025984421,0.028381348
0.0,0.0,-0.034894593,0.087697916,-0.017565206,0.9959921,0.9960902,-0.009146159,-0.08786785,-0.010652901,-0.9998039,-0.016694441,-0.4360379214286804,-0.07778099603652952,-0.15617077026367276,0.08902015,-0.008637784,-0.030277897,0.027893066
0.0,0.04945011,0.0,0.086330056,-0.017565206,0.99611163,0.9962099,-0.009146159,-0.086499855,-0.010629964,-0.9998039,-0.016709056,-0.9921814496994019,-0.10172301263809203,0.04395702362060483,0.060768407,-0.008637784,-0.030277897,0.027770996
0.0,0.032662973,0.0,0.085424475,-0.017565206,0.9961897,0.9962881,-0.009146159,-0.085594185,-0.0106147695,-0.9998039,-0.016718712,0.14774529161453243,-0.053838979434967016,0.1342929565429678,0.06416398,-0.008637784,-0.02650318,0.027832031
0.0,0.0,-0.060741454,0.08545399,-0.017421082,0.9961897,0.9963021,-0.0074655563,-0.085594185,-0.008928235,-0.9998204,-0.016718712,0.11637724466323851,-0.3662739502906799,0.05049589843750013,0.06416398,-0.0182511,-0.02650318,0.027770996
0.0,0.0,-0.08205846,0.08549355,-0.017225873,0.9961897,0.99631655,-0.0051901285,-0.085594185,-0.0066447677,-0.9998382,-0.016718712,0.2094247739791869,0.26418518772125243,0.05049589843750013,0.06923812,-0.01037815,-0.02650318,0.027832031
0.0,0.0,0.0,0.08549355,-0.017225873,0.9961897,0.99631655,-0.0051901285,-0.085594185,-0.0066447677,-0.9998382,-0.016718712,0.219001580619812,-0.013542204856872547,0.040919091796874696,0.074540436,-0.01037815,-0.02650318,0.027770996
0.0,0.0,0.0,0.08549355,-0.017225873,0.9961897,0.99631655,-0.0051901285,-0.085594185,-0.0066447677,-0.9998382,-0.016718712,0.1735117490768432,-0.023119011497497538,-0.02372435302734388,0.07861226,-0.01037815,-0.02650318,0.028137207
0.0,0.0,0.0,0.08549355,-0.017225873,0.9961897,0.99631655,-0.0051901285,-0.085594185,-0.0066447677,-0.9998382,-0.016718712,0.19984796733856192,-0.0398784231185913,-0.016541748046876137,0.08343221,-0.01037815,-0.02650318,0.028320312
0.0,0.0,0.0,0.08549355,-0.017225873,0.9961897,0.99631655,-0.0051901285,-0.085594185,-0.0066447677,-0.9998382,-0.016718712,0.11605090923309325,-0.0111480031967163,0.0002176635742188182,0.08343221,-0.01037815,-0.02650318,0.028320312
0.0,0.0,0.0,0.08549355,-0.017225873,0.9961897,0.99631655,-0.0051901285,-0.085594185,-0.0066447677,-0.9998382,-0.016718712,0.15675233745574946,-0.06621464138031005,-0.038089562988281145,0.08700151,-0.01037815,-0.02650318,0.028320312
0.0,0.0,0.0,0.08549355,-0.017225873,0.9961897,0.99631655,-0.0051901285,-0.085594185,-0.0066447677,-0.9998382,-0.016718712,0.1591465391159057,-0.06621464138031005,-0.038089562988281145,0.090589225,-0.01037815,-0.02650318,0.028076172
0.0,0.0,0.0,0.08549355,-0.017225873,0.9961897,0.99631655,-0.0051901285,-0.085594185,-0.0066447677,-0.9998382,-0.016718712,0.19027116069793693,-0.0686088430404663,-0.016541748046876137,0.09498024,-0.01037815,-0.02650318,0.027770996
0.0,0.0,0.0,0.08549355,-0.017225873,0.9961897,0.99631655,-0.0051901285,-0.085594185,-0.0066447677,-0.9998382,-0.016718712,0.23097258892059325,-0.0638204397201538,-0.062031579589843844,0.10047397,-0.01037815,-0.02650318,0.027770996
0.0,0.0,0.0,0.08549355,-0.017225873,0.9961897,0.99631655,-0.0051901285,-0.085594185,-0.0066447677,-0.9998382,-0.016718712,0.1735117490768432,-0.006359599876403804,-0.08357939453125063,0.10435247,-0.01037815,-0.02650318,0.027770996
0.0,0.0,0.0,0.08549355,-0.017225873,0.9961897,0.99631655,-0.0051901285,-0.085594185,-0.0066447677,-0.9998382,-0.016718712,0.1543581357955932,-0.025513213157653786,-0.04287796630859475,0.107689634,-0.01037815,-0.02650318,0.027832031
0.0,0.0,0.0,0.08549355,-0.017225873,0.9961897,0.99631655,-0.0051901285,-0.085594185,-0.0066447677,-0.9998382,-0.016718712,0.16154074077606195,-0.09973346462249755,-0.08836779785156246,0.1112013,-0.01037815,-0.02650318,0.027770996
0.0,0.0,0.0,0.08549355,-0.017225873,0.9961897,0.99631655,-0.0051901285,-0.085594185,-0.0066447677,-0.9998382,-0.016718712,0.18069435405731193,-0.04227262477874755,0.0002176635742188182,0.115242355,-0.01037815,-0.02650318,0.027893066
0.0,0.0,0.0,0.08549355,-0.017225873,0.9961897,0.99631655,-0.0051901285,-0.085594185,-0.0066447677,-0.9998382,-0.016718712,0.2525204038619995,-0.09494506130218505,-0.0309069580078134,0.12124347,-0.01037815,-0.02650318,0.027832031
0.0,0.0,0.0,0.08549355,-0.017225873,0.9961897,0.99631655,-0.0051901285,-0.085594185,-0.0066447677,-0.9998382,-0.016718712,0.18548275737762443,-0.07579144802093504,-0.09076199951171837,0.12534909,-0.01037815,-0.02650318,0.027770996
0.0,0.0,0.0,0.08549355,-0.017225873,0.9961897,0.99631655,-0.0051901285,-0.085594185,-0.0066447677,-0.9998382,-0.016718712,0.22139578227996826,0.0008230051040649389,0.016977075195311997,0.13042654,-0.01037815,-0.02650318,0.027770996
0.0,0.0,0.0,0.08549355,-0.017225873,0.9961897,0.99631655,-0.0051901285,-0.085594185,-0.0066447677,-0.9998382,-0.016718712,0.1639349424362182,-0.08776245632171631,0.045707495117186525,0.13389845,-0.01037815,-0.02650318,0.027832031
0.0,0.0,0.0,0.08549355,-0.017225873,0.9961897,0.99631655,-0.0051901285,-0.085594185,-0.0066447677,-0.9998382,-0.016718712,0.1687233457565307,-0.02790741481781006,-0.10991561279296924,0.13747774,-0.01037815,-0.029462522,0.027770996
0.0,0.0,0.0,0.08549355,-0.017225873,0.9961897,0.99631655,-0.0051901285,-0.085594185,-0.0066447677,-0.9998382,-0.016718712,0.238155193901062,-0.025513213157653786,-0.06442578124999976,0.14296973,-0.01037815,-0.029462522,0.027832031
0.0,0.0,0.0,0.08549355,-0.017225873,0.9961897,0.99631655,-0.0051901285,-0.085594185,-0.0066447677,-0.9998382,-0.016718712,0.18069435405731193,-0.054243633079528786,0.040919091796874696,0.14693643,-0.01037815,-0.029462522,0.028503418
0.0,0.0,0.0,0.08549355,-0.017225873,0.9961897,0.99631655,-0.0051901285,-0.085594185,-0.0066447677,-0.9998382,-0.016718712,0.2142131772994995,-0.10691606960296629,0.06964951171874922,0.15173954,-0.01037815,-0.029462522,0.027954102
0.0,0.0,0.0,0.08549355,-0.017225873,0.9961897,0.99631655,-0.0051901285,-0.085594185,-0.0066447677,-0.9998382,-0.016718712,0.19505956401824942,0.0008230051040649389,-0.016541748046876137,0.15595807,-0.01037815,-0.029462522,0.027770996
0.0,0.0,0.0,0.08549355,-0.017225873,0.9961897,0.99631655,-0.0051901285,-0.085594185,-0.0066447677,-0.9998382,-0.016718712,0.18069435405731193,0.029553425025939953,-0.05963737792968793,0.15975857,-0.01037815,-0.029462522,0.027770996
0.0,0.0,0.0,0.08549355,-0.017225873,0.9961897,0.99631655,-0.0051901285,-0.085594185,-0.0066447677,-0.9998382,-0.016718712,0.17111754741668694,-0.0398784231185913,-0.06921418457031336,0.16328317,-0.01037815,-0.029462522,0.027832031
0.0,0.0,0.0,0.08549355,-0.017225873,0.9961897,0.99631655,-0.0051901285,-0.085594185,-0.0066447677,-0.9998382,-0.016718712,0.08253208599090567,-0.09015665798187256,0.0050060668945306475,0.16328317,-0.01037815,-0.029462522,0.027832031
0.0,0.0,0.0,0.08549355,-0.017225873,0.9961897,0.99631655,-0.0051901285,-0.085594185,-0.0066447677,-0.9998382,-0.016718712,0.06098427104949944,-0.03030161647796631,0.002611865234374733,0.16328317,-0.01037815,-0.029462522,0.027832031
0.0,0.0,0.0,0.08549355,-0.017225873,0.9961897,0.99631655,-0.0051901285,-0.085594185,-0.0066447677,-0.9998382,-0.016718712,0.20224216899871816,-0.05663783473968503,-0.045272167968750665,0.16764455,-0.01037815,-0.029462522,0.027832031
0.0,0.0,0.0,0.08549355,-0.017225873,0.9961897,0.99631655,-0.0051901285,-0.085594185,-0.0066447677,-0.9998382,-0.016718712,0.22618418560028075,-0.025513213157653786,0.002611865234374733,0.17264715,-0.01037815,-0.029462522,0.027832031
0.0,0.0,0.0,0.08549355,-0.017225873,0.9961897,0.99631655,-0.0051901285,-0.085594185,-0.0066447677,-0.9998382,-0.016718712,0.2237899839401245,0.010399811744689957,-0.009359143066406617,0.17754766,-0.01037815,-0.029462522,0.027770996
0.0,0.0,0.0,0.08549355,-0.017225873,0.9961897,0.99631655,-0.0051901285,-0.085594185,-0.0066447677,-0.9998382,-0.016718712,0.13041611919403073,-0.054243633079528786,-0.0021765380859370964,0.17754766,-0.01037815,-0.029462522,0.027770996
0.0,0.0,0.0,0.08549355,-0.017225873,0.9961897,0.99631655,-0.0051901285,-0.085594185,-0.0066447677,-0.9998382,-0.016718712,0.18069435405731193,-0.05184943141937254,-0.033301159667969316,0.18122137,-0.01037815,-0.029462522,0.027770996
0.0,0.0,0.0,0.08549355,-0.017225873,0.9961897,0.99631655,-0.0051901285,-0.085594185,-0.0066447677,-0.9998382,-0.016718712,0.17111754741668694,-0.03269581813812256,-0.057243176269532015,0.18461208,-0.01037815,-0.029462522,0.027770996
0.0,0.0,0.0,0.08549355,-0.017225873,0.9961897,0.99631655,-0.0051901285,-0.085594185,-0.0066447677,-0.9998382,-0.016718712,0.238155193901062,-0.02072480983734129,-0.0548489746093761,0.18983823,-0.01037815,-0.029462522,0.027770996
0.0,0.0,0.0,0.08549355,-0.017225873,0.9961897,0.99631655,-0.0051901285,-0.085594185,-0.0066447677,-0.9998382,-0.016718712,0.1639349424362182,-0.08776245632171631,-0.06681998291015745,0.19298738,-0.01037815,-0.029462522,0.027770996
0.0,0.0,0.0,0.08549355,-0.017225873,0.9961897,0.99631655,-0.0051901285,-0.085594185,-0.0066447677,-0.9998382,-0.016718712,0.1184451108932495,-0.09494506130218505,0.016977075195311997,0.19298738,-0.01037815,-0.029462522,0.027770996
0.0,0.0,0.0,0.08549355,-0.017225873,0.9961897,0.99631655,-0.0051901285,-0.085594185,-0.0066447677,-0.9998382,-0.016718712,0.23097258892059325,-0.06142623805999756,0.016977075195311997,0.1979638,-0.01037815,-0.029462522,0.027770996
0.0,0.0,0.0,0.08549355,-0.017225873,0.9961897,0.99631655,-0.0051901285,-0.085594185,-0.0066447677,-0.9998382,-0.016718712,0.16154074077606195,-0.07100304470062255,-0.04766636962890658,0.20104346,-0.01037815,-0.029462522,0.028198242
0.0,0.0,0.0,0.08549355,-0.017225873,0.9961897,0.99631655,-0.0051901285,-0.085594185,-0.0066447677,-0.9998382,-0.016718712,0.1783001523971557,-0.08297405300140379,0.0050060668945306475,0.20452438,-0.01037815,-0.029462522,0.027770996
0.0,0.0,0.0,0.08549355,-0.017225873,0.9961897,0.99631655,-0.0051901285,-0.085594185,-0.0066447677,-0.9998382,-0.016718712,0.13999292583465572,-0.0398784231185913,-0.011753344726562531,0.20452438,-0.01037815,-0.029462522,0.027832031
0.0,0.0,0.0,0.08549355,-0.017225873,0.9961897,0.99631655,-0.0051901285,-0.085594185,-0.0066447677,-0.9998382,-0.016718712,0.10647410259246826,-0.05663783473968503,0.05528430175781196,0.20452438,-0.01037815,-0.029462522,0.027832031
0.0,0.0,0.0,0.08549355,-0.017225873,0.9961897,0.99631655,-0.0051901285,-0.085594185,-0.0066447677,-0.9998382,-0.016718712,0.18069435405731193,-0.07100304470062255,-0.07639678955078111,0.20804241,-0.01037815,-0.029462522,0.027832031
0.0,0.0,0.0,0.08549355,-0.017225873,0.9961897,0.99631655,-0.0051901285,-0.085594185,-0.0066447677,-0.9998382,-0.016718712,0.16632914409637445,0.019976618385314948,-0.011753344726562531,0.21113823,-0.01037815,-0.029462522,0.027770996
0.0,0.0,0.0,0.08549355,-0.017225873,0.9961897,0.99631655,-0.0051901285,-0.085594185,-0.0066447677,-0.9998382,-0.016718712,0.19984796733856192,-0.018330608177185043,0.007400268554686562,0.21524163,-0.01037815,-0.029462522,0.028442383
0.0,0.0,0.0,0.08549355,-0.017225873,0.9961897,0.99631655,-0.0051901285,-0.085594185,-0.0066447677,-0.9998382,-0.016718712,0.238155193901062,-0.0398784231185913,0.0002176635742188182,0.22030881,-0.01037815,-0.029462522,0.027893066
0.0,0.0,0.0,0.08549355,-0.017225873,0.9961897,0.99631655,-0.0051901285,-0.085594185,-0.0066447677,-0.9998382,-0.016718712,0.12323351421356199,-0.03269581813812256,-0.021330151367187966,0.22030881,-0.01037815,-0.029462522,0.027832031
0.0,0.0,0.0,0.08549355,-0.017225873,0.9961897,0.99631655,-0.0051901285,-0.085594185,-0.0066447677,-0.9998382,-0.016718712,0.18548275737762443,-0.07818564968109129,-0.02372435302734388,0.22387174,-0.01037815,-0.029462522,0.027832031
0.0,0.0,0.0,0.08549355,-0.017225873,0.9961897,0.99631655,-0.0051901285,-0.085594185,-0.0066447677,-0.9998382,-0.016718712,0.1783001523971557,-0.11888707790374753,0.07204371337890514,0.22721061,-0.01037815,-0.029462522,0.027770996
0.0,0.0,0.0,0.08549355,-0.017225873,0.9961897,0.99631655,-0.0051901285,-0.085594185,-0.0066447677,-0.9998382,-0.016718712,0.16154074077606195,-0.02072480983734129,-0.033301159667969316,0.23007597,-0.01037815,-0.029462522,0.027832031
0.0,0.0,0.0,0.08549355,-0.017225873,0.9961897,0.99631655,-0.0051901285,-0.085594185,-0.0066447677,-0.9998382,-0.016718712,0.19027116069793693,-0.03269581813812256,-0.011753344726562531,0.23372263,-0.01037815,-0.029462522,0.027832031
0.0,0.0,0.0,0.08549355,-0.017225873,0.9961897,0.99631655,-0.0051901285,-0.085594185,-0.0066447677,-0.9998382,-0.016718712,0.12323351421356199,-0.07818564968109129,-0.08118519287109471,0.23372263,-0.01037815,-0.029462522,0.028137207
0.0,0.0,0.0,0.08549355,-0.017225873,0.9961897,0.99631655,-0.0051901285,-0.085594185,-0.0066447677,-0.9998382,-0.016718712,0.12562771587371824,-0.0015711965560913088,0.0648611083984374,0.23372263,-0.01037815,-0.029462522,0.028320312
0.0,0.0,0.0,0.08549355,-0.017225873,0.9961897,0.99631655,-0.0051901285,-0.085594185,-0.0066447677,-0.9998382,-0.016718712,0.1591465391159057,-0.03030161647796631,-0.08118519287109471,0.23372263,-0.01037815,-0.029462522,0.028259277
0.0,0.0,0.0,0.08549355,-0.017225873,0.9961897,0.99631655,-0.0051901285,-0.085594185,-0.0066447677,-0.9998382,-0.016718712,0.21181897563934315,-0.025513213157653786,-0.0548489746093761,0.2379988,-0.01037815,-0.029462522,0.028381348
0.0,0.0,0.0,0.08549355,-0.017225873,0.9961897,0.99631655,-0.0051901285,-0.085594185,-0.0066447677,-0.9998382,-0.016718712,0.24294359722137449,-0.054243633079528786,0.09119732666015601,0.24308836,-0.01037815,-0.029462522,0.028137207
0.0,0.0,0.0,0.08549355,-0.017225873,0.9961897,0.99631655,-0.0051901285,-0.085594185,-0.0066447677,-0.9998382,-0.016718712,0.18548275737762443,-0.0638204397201538,-0.0021765380859370964,0.2465138,-0.01037815,-0.029462522,0.027893066
0.0,0.0,0.0,0.08549355,-0.017225873,0.9961897,0.99631655,-0.0051901285,-0.085594185,-0.0066447677,-0.9998382,-0.016718712,0.1543581357955932,-0.08536825466156003,-0.016541748046876137,0.2465138,-0.01037815,-0.029462522,0.027893066
0.0,0.0,0.0,0.08549355,-0.017225873,0.9961897,0.99631655,-0.0051901285,-0.085594185,-0.0066447677,-0.9998382,-0.016718712,0.1591465391159057,-0.018330608177185043,0.024159680175781517,0.2465138,-0.01037815,-0.029462522,0.027832031
0.0,0.0,0.0,0.08549355,-0.017225873,0.9961897,0.99631655,-0.0051901285,-0.085594185,-0.0066447677,-0.9998382,-0.016718712,0.2046363706588744,-0.015936406517028795,-0.01893594970703205,0.2504105,-0.01037815,-0.029462522,0.027770996
0.0,0.0,0.0,0.08549355,-0.017225873,0.9961897,0.99631655,-0.0051901285,-0.085594185,-0.0066447677,-0.9998382,-0.016718712,0.16632914409637445,-0.11409867458343503,-0.016541748046876137,0.2532292,-0.01037815,-0.029462522,0.027770996
0.0,0.0,0.0,0.08549355,-0.017225873,0.9961897,0.99631655,-0.0051901285,-0.085594185,-0.0066447677,-0.9998382,-0.016718712,0.16154074077606195,-0.02790741481781006,-0.01893594970703205,0.2532292,-0.01037815,-0.029462522,0.027893066
0.0,0.0,0.0,0.08549355,-0.017225873,0.9961897,0.99631655,-0.0051901285,-0.085594185,-0.0066447677,-0.9998382,-0.016718712,0.14956973247528071,-0.03030161647796631,0.0002176635742188182,0.2532292,-0.01037815,-0.029462522,0.027770996
0.0,0.0,0.0,0.08549355,-0.017225873,0.9961897,0.99631655,-0.0051901285,-0.085594185,-0.0066447677,-0.9998382,-0.016718712,0.17111754741668694,-0.05663783473968503,0.0002176635742188182,0.25614113,-0.01037815,-0.029462522,0.027770996
