GyroX,GyroY,GyroZ,ExpGravityX,ExpGravityY,ExpGravityZ,ExpOxX,ExpOxY,ExpOxZ,ExpOyX,ExpOyY,ExpOyZ,AccX,AccY,AccZ,AccNoiseX,AccNoiseY,AccNoiseZ,ExpSpeedX,ExpSpeedY,ExpSpeedZ,dT
0.0,0.0,0.0,0.099733286,-0.0033518763,0.9950086,0.99501425,0.00033596865,-0.09973271,-2.9103834e-11,-0.9999944,-0.003368672,0.03854667987823479,-0.020494369852542875,-0.01838821716308736,0.00019273339939117397,-0.00010247184926271438,-9.194108581543681e-05,0.0,0.0,0.0,0.0043945312
0.0,0.0,0.0,0.099733286,-0.0033518763,0.9950086,0.99501425,0.00033596865,-0.09973271,-2.9103834e-11,-0.9999944,-0.003368672,0.014604663276672314,0.04175487331151962,-0.04711863708496189,0.00026479304877757967,0.0001068148765411973,-0.0003270745658111691,0.0,0.0,0.0,0.025878906
0.0,0.0,0.0,0.099733286,-0.0033518763,0.9950086,0.99501425,0.00033596865,-0.09973271,-2.9103834e-11,-0.9999944,-0.003368672,-0.06679819316864022,-0.018100168192386627,0.0917450592041007,-7.052188230950935e-05,1.5779961196558178e-05,0.0001332861030383903,0.0,0.0,0.0,0.025878906
0.0,0.0,0.0,0.099733286,-0.0033518763,0.9950086,0.99501425,0.00033596865,-0.09973271,-2.9103834e-11,-0.9999944,-0.003368672,0.021787268257141057,0.044149074971675875,-0.030359225463866935,3.87670683877435e-05,0.00023644643624895479,-1.9176454796136333e-05,0.0,0.0,0.0,0.025756836
0.0,0.0,0.0,0.099733286,-0.0033518763,0.9950086,0.99501425,0.00033596865,-0.09973271,-2.9103834e-11,-0.9999944,-0.003368672,0.04094088153839104,0.010630251729488373,0.04625522766113299,0.00024327764073775996,0.0002884154627151519,0.00021219556578350933,0.0,0.0,0.0,0.025756836
0.0,0.0,0.0,0.099733286,-0.0033518763,0.9950086,0.99501425,0.00033596865,-0.09973271,-2.9103834e-11,-0.9999944,-0.003368672,-0.04285617656707774,-0.015705966532230373,-0.03993603210449237,2.7780369698682456e-05,0.00020844355274042423,1.1454427432129935e-05,0.0,0.0,0.0,0.025756836
0.0,0.0,0.0,0.099733286,-0.0033518763,0.9950086,0.99501425,0.00033596865,-0.09973271,-2.9103834e-11,-0.9999944,-0.003368672,0.04094088153839104,0.05133167995214462,-0.01838821716308736,0.00023234587554214425,0.0004640597347374452,-8.054393052046753e-05,0.0,0.0,0.0,0.025756836
0.0,0.0,0.0,0.099733286,-0.0033518763,0.9950086,0.99501425,0.00033596865,-0.09973271,-2.9103834e-11,-0.9999944,-0.003368672,0.09600751972198474,-0.03964798313379288,0.029495816040038036,0.0007112217447743571,0.0002634995203947936,6.7337869332325e-05,0.0,0.0,0.0,0.025756836
0.0,0.0,0.0,0.099733286,-0.0033518763,0.9950086,0.99501425,0.00033596865,-0.09973271,-2.9103834e-11,-0.9999944,-0.003368672,-0.05243298320770273,-0.03485957981348037,-0.008811410522461927,0.00044550072001197174,8.788412372541778e-05,2.2944127373353736e-05,0.0,0.0,0.0,0.025756836
0.0,0.0,0.0,0.099733286,-0.0033518763,0.9950086,0.99501425,0.00033596865,-0.09973271,-2.9103834e-11,-0.9999944,-0.003368672,-0.014125756645202658,0.010630251729488373,0.08456245422363295,0.0003726444331858986,0.00014059596175423255,0.00044564167785465173,0.0,0.0,0.0,0.025878906
0.0,0.0,0.0,0.099733286,-0.0033518763,0.9950086,0.99501425,0.00033596865,-0.09973271,-2.9103834e-11,-0.9999944,-0.003368672,0.0289698732376098,0.03217806667089462,-0.037541830444336455,0.0005156305772080181,0.0003007833152999345,0.0002557043172436962,0.0,0.0,0.0,0.025756836
0.0,0.0,0.0,0.099733286,-0.0033518763,0.9950086,0.99501425,0.00033596865,-0.09973271,-2.9103834e-11,-0.9999944,-0.003368672,-0.030885168266296392,-0.008523361551761623,0.015130606079100772,0.00035862658299049607,0.0002566625909646267,0.0003300788260529816,0.0,0.0,0.0,0.026000977
0.0,0.0,0.0,0.099733286,-0.0033518763,0.9950086,0.99501425,0.00033596865,-0.09973271,-2.9103834e-11,-0.9999944,-0.003368672,-0.038067773246765135,-0.006129159891605375,-0.01599401550292967,0.00016649458384171791,0.0002247334785517767,0.00024845835440806833,0.0,0.0,0.0,0.025756836
0.0,0.0,0.0,0.099733286,-0.0033518763,0.9950086,0.99501425,0.00033596865,-0.09973271,-2.9103834e-11,-0.9999944,-0.003368672,-0.01173155498504641,0.04175487331151962,0.015130606079100772,0.00010700433599727726,0.0004323841777166159,0.00032286909303153185,0.0,0.0,0.0,0.025756836
0.0,0.0,0.0,0.099733286,-0.0033518763,0.9950086,0.99501425,0.00033596865,-0.09973271,-2.9103834e-11,-0.9999944,-0.003368672,-0.016519958305358906,-0.025282773172855377,-0.01838821716308736,2.3869522790496343e-05,0.0003038083909637559,0.0002293136617509374,0.0,0.0,0.0,0.025756836
0.0,0.0,0.0,0.099733286,-0.0033518763,0.9950086,0.99501425,0.00033596865,-0.09973271,-2.9103834e-11,-0.9999944,-0.003368672,-0.006943151664733915,0.013024453389644624,0.0438610260009753,-1.0965583147125719e-05,0.0003674116159571602,0.0004474722234470592,0.0,0.0,0.0,0.025756836
0.0,0.0,0.0,0.099733286,-0.0033518763,0.9950086,0.99501425,0.00033596865,-0.09973271,-2.9103834e-11,-0.9999944,-0.003368672,-0.028490966606140145,0.024995461690425873,-0.03514762878418054,-0.00015336558826209082,0.0004905518663295038,0.00026949671840892126,0.0,0.0,0.0,0.025756836
0.0,0.0,0.0,0.099733286,-0.0033518763,0.9950086,0.99501425,0.00033596865,-0.09973271,-2.9103834e-11,-0.9999944,-0.003368672,0.06727709980010976,-0.020494369852542875,-0.020782418823243276,0.00018378673867976844,0.00038562725773514186,0.00016423714070066024,0.0,0.0,0.0,0.025634766
0.0,0.0,0.0,0.099733286,-0.0033518763,0.9950086,0.99501425,0.00033596865,-0.09973271,-2.9103834e-11,-0.9999944,-0.003368672,-0.04764457988739024,0.005841848409175874,0.012736404418944858,-5.5355094450581594e-05,0.0004129083634923455,0.00022709797709188122,0.0,0.0,0.0,0.025756836
0.0,0.0,0.0,0.099733286,-0.0033518763,0.9950086,0.99501425,0.00033596865,-0.09973271,-2.9103834e-11,-0.9999944,-0.003368672,0.04094088153839104,0.03936067165136337,0.010342202758788943,0.0001496260887136265,0.0006076471799317006,0.00027767350100036655,0.0,0.0,0.0,0.025756836
0.0,0.0,0.0,0.099733286,-0.0033518763,0.9950086,0.99501425,0.00033596865,-0.09973271,-2.9103834e-11,-0.9999944,-0.003368672,0.04812348651885978,0.05133167995214462,-0.006417208862306012,0.0003894953908643573,0.0008612673437927652,0.0002441990891838347,0.0,0.0,0.0,0.025756836
0.0,0.0,0.0,0.099733286,-0.0033518763,0.9950086,0.99501425,0.00033596865,-0.09973271,-2.9103834e-11,-0.9999944,-0.003368672,-0.050038781547546485,-0.03485957981348037,-0.08063746032714825,0.00013735400617230308,0.0006826631080063995,-0.00016020920789782571,0.0,0.0,0.0,0.025756836
0.0,0.0,0.0,0.099733286,-0.0033518763,0.9950086,0.99501425,0.00033596865,-0.09973271,-2.9103834e-11,-0.9999944,-0.003368672,-0.04525037822723399,-0.030071176493167873,-0.01599401550292967,-8.958465499472838e-05,0.0005288939100005282,-0.00023937823937298495,0.0,0.0,0.0,0.025756836
0.0,0.0,0.0,0.099733286,-0.0033518763,0.9950086,0.99501425,0.00033596865,-0.09973271,-2.9103834e-11,-0.9999944,-0.003368672,0.05291188983917228,0.022601260030269625,-0.03993603210449237,0.00017542271747610663,0.0006392557406018737,-0.00043786150869858185,0.0,0.0,0.0,0.025756836
0.0,0.0,0.0,0.099733286,-0.0033518763,0.9950086,0.99501425,0.00033596865,-0.09973271,-2.9103834e-11,-0.9999944,-0.003368672,0.024181469917297305,-0.020494369852542875,-0.042330233764648284,0.0002954529534752126,0.00053358761263615,-0.0006473233699783304,0.0,0.0,0.0,0.025756836
0.0,0.0,0.0,0.099733286,-0.0033518763,0.9950086,0.99501425,0.00033596865,-0.09973271,-2.9103834e-11,-0.9999944,-0.003368672,-0.028490966606140145,0.017812856709957123,0.07737984924316343,0.00015152085567713582,0.0006199839581227549,-0.00025718750691262155,0.0,0.0,0.0,0.025756836
0.0,0.0,0.0,0.099733286,-0.0033518763,0.9950086,0.99501425,0.00033596865,-0.09973271,-2.9103834e-11,-0.9999944,-0.003368672,-0.0213083616256714,-0.04922478977441787,0.0965334625244143,4.422144327039314e-05,0.00037076008946005176,0.00022676574324401308,0.0,0.0,0.0,0.025756836
0.0,0.0,0.0,0.099733286,-0.0033518763,0.9950086,0.99501425,0.00033596865,-0.09973271,-2.9103834e-11,-0.9999944,-0.003368672,0.07924810810089111,0.03217806667089462,0.03428421936035164,0.00044024087655849674,0.0005297966223672246,0.0003970530113295512,0.0,0.0,0.0,0.025756836
0.0,0.0,0.0,0.099733286,-0.0033518763,0.9950086,0.99501425,0.00033596865,-0.09973271,-2.9103834e-11,-0.9999944,-0.003368672,-0.04525037822723399,-0.042042184793949125,0.024707412719726207,0.0002117877810395343,0.00031693671528564287,0.0005186048098715344,0.0,0.0,0.0,0.025756836
0.0,0.0,0.0,0.099733286,-0.0033518763,0.9950086,0.99501425,0.00033596865,-0.09973271,-2.9103834e-11,-0.9999944,-0.003368672,-0.028490966606140145,-0.0037349582314491273,-0.049512838745117804,6.82740091036359e-05,0.00029667724055196904,0.00026844759209658763,0.0,0.0,0.0,0.025634766
0.0,0.0,0.0,0.099733286,-0.0033518763,0.9950086,0.99501425,0.00033596865,-0.09973271,-2.9103834e-11,-0.9999944,-0.003368672,0.03615247821807854,0.06090848659276962,-0.06627225036621098,0.00024869503014851043,0.0005997362873130573,-6.425589769495026e-05,0.0,0.0,0.0,0.025756836
0.0,0.0,0.0,0.099733286,-0.0033518763,0.9950086,0.99501425,0.00033596865,-0.09973271,-2.9103834e-11,-0.9999944,-0.003368672,-0.016519958305358906,0.03457226833105087,0.03667842102050756,0.00016485176347097336,0.0007695989475317463,0.00011945748689606226,0.0,0.0,0.0,0.025756836
0.0,0.0,0.0,0.099733286,-0.0033518763,0.9950086,0.99501425,0.00033596865,-0.09973271,-2.9103834e-11,-0.9999944,-0.003368672,-0.08355760478973395,-0.030071176493167873,-0.020782418823243276,-0.00025376051929505125,0.0006153950703282482,1.4948105345365575e-05,0.0,0.0,0.0,0.025634766
0.0,0.0,0.0,0.099733286,-0.0033518763,0.9950086,0.99501425,0.00033596865,-0.09973271,-2.9103834e-11,-0.9999944,-0.003368672,0.05770029315948477,-0.006129159891605375,-0.008811410522461927,3.600974909884788e-05,0.0005816722955185802,-2.9183687793670882e-05,0.0,0.0,0.0,0.025756836
0.0,0.0,0.0,0.099733286,-0.0033518763,0.9950086,0.99501425,0.00033596865,-0.09973271,-2.9103834e-11,-0.9999944,-0.003368672,0.0026336549758910754,0.001053445088863375,-0.004023007202148321,4.899797523280902e-05,0.0005840311594853041,-4.9152805365444134e-05,0.0,0.0,0.0,0.026000977
0.0,0.0,0.0,0.099733286,-0.0033518763,0.9950086,0.99501425,0.00033596865,-0.09973271,-2.9103834e-11,-0.9999944,-0.003368672,0.021787268257141057,-0.08034941135644912,-0.013599813842773756,0.00015768932664235027,0.000179363946905632,-0.00011690611055248569,0.0,0.0,0.0,0.025756836
0.0,0.0,0.0,0.099733286,-0.0033518763,0.9950086,0.99501425,0.00033596865,-0.09973271,-2.9103834e-11,-0.9999944,-0.003368672,-0.06440399150848397,-0.0037349582314491273,-0.07106065368652459,-0.00016511907753328134,0.00015979233601385822,-0.0004716248484323462,0.0,0.0,0.0,0.025878906
0.0,0.0,0.0,0.099733286,-0.0033518763,0.9950086,0.99501425,0.00033596865,-0.09973271,-2.9103834e-11,-0.9999944,-0.003368672,0.03136407489776605,0.001053445088863375,0.027101614379882122,-7.4731076567846925e-06,0.00016426059977810582,-0.0003337586522907739,0.0,0.0,0.0,0.025878906
0.0,0.0,0.0,0.099733286,-0.0033518763,0.9950086,0.99501425,0.00033596865,-0.09973271,-2.9103834e-11,-0.9999944,-0.003368672,-0.0907402097702027,-0.015705966532230373,-0.05908964538574324,-0.0004611367909695143,8.490946411806341e-05,-0.0006275380859580362,0.0,0.0,0.0,0.025878906
0.0,0.0,0.0,0.099733286,-0.0033518763,0.9950086,0.99501425,0.00033596865,-0.09973271,-2.9103834e-11,-0.9999944,-0.003368672,-0.0213083616256714,-0.04922478977441787,-0.02796502380371102,-0.0005653729151430237,-0.00016163903207461628,-0.0007642255145468011,0.0,0.0,0.0,0.025756836
0.0,0.0,0.0,0.099733286,-0.0033518763,0.9950086,0.99501425,0.00033596865,-0.09973271,-2.9103834e-11,-0.9999944,-0.003368672,0.04812348651885978,-0.05401319309473038,0.07019724426269391,-0.0003219286179730097,-0.00043089680238789506,-0.0004094181656605975,0.0,0.0,0.0,0.025756836
0.0,0.0,0.0,0.099733286,-0.0033518763,0.9950086,0.99501425,0.00033596865,-0.09973271,-2.9103834e-11,-0.9999944,-0.003368672,-0.026096764945983897,-0.05401319309473038,0.041466824340819386,-0.0004508027996130641,-0.0006988082838496074,-0.00020003695312819758,0.0,0.0,0.0,0.025756836
0.0,0.0,0.0,0.099733286,-0.0033518763,0.9950086,0.99501425,0.00033596865,-0.09973271,-2.9103834e-11,-0.9999944,-0.003368672,-0.014125756645202658,0.027389663350582124,0.04625522766113299,-0.0005191775688410121,-0.0005583659256774488,3.223936994310839e-05,0.0,0.0,0.0,0.025634766
0.0,0.0,0.0,0.099733286,-0.0033518763,0.9950086,0.99501425,0.00033596865,-0.09973271,-2.9103834e-11,-0.9999944,-0.003368672,0.06248869647979727,0.024995461690425873,-0.01599401550292967,-0.00020413819859782067,-0.0004305967875969321,-4.789190442125551e-05,0.0,0.0,0.0,0.025756836
0.0,0.0,0.0,0.099733286,-0.0033518763,0.9950086,0.99501425,0.00033596865,-0.09973271,-2.9103834e-11,-0.9999944,-0.003368672,0.012210461616516066,0.04893747829198837,-0.054301242065429633,-0.00014206519952225124,-0.0001837564121990056,-0.0003191586552262974,0.0,0.0,0.0,0.025878906
0.0,0.0,0.0,0.099733286,-0.0033518763,0.9950086,0.99501425,0.00033596865,-0.09973271,-2.9103834e-11,-0.9999944,-0.003368672,-0.016519958305358906,0.008236050069332125,0.0055537994384753375,-0.0002239546650514345,-0.00014165737979134996,-0.00028979386475778924,0.0,0.0,0.0,0.025756836
0.0,0.0,0.0,0.099733286,-0.0033518763,0.9950086,0.99501425,0.00033596865,-0.09973271,-2.9103834e-11,-0.9999944,-0.003368672,0.014604663276672314,0.03936067165136337,0.007948001098633029,-0.00014981157534281573,5.585426536442367e-05,-0.00024860488994083514,0.0,0.0,0.0,0.025756836
0.0,0.0,0.0,0.099733286,-0.0033518763,0.9950086,0.99501425,0.00033596865,-0.09973271,-2.9103834e-11,-0.9999944,-0.003368672,0.04812348651885978,-0.022888571512699123,0.048649429321288906,9.155491512819727e-05,-5.886786352589406e-05,-4.11471888468642e-06,0.0,0.0,0.0,0.025756836
0.0,0.0,0.0,0.099733286,-0.0033518763,0.9950086,0.99501425,0.00033596865,-0.09973271,-2.9103834e-11,-0.9999944,-0.003368672,-0.0213083616256714,-0.0037349582314491273,0.003159597778319423,-1.544466757580072e-05,-7.724831536551023e-05,1.1703843601334125e-05,0.0,0.0,0.0,0.025756836
0.0,0.0,0.0,0.099733286,-0.0033518763,0.9950086,0.99501425,0.00033596865,-0.09973271,-2.9103834e-11,-0.9999944,-0.003368672,0.06967130146026612,-0.03246537815332412,-0.025570822143555105,0.00033298906306340894,-0.0002391889645553033,-0.00011620878633444807,0.0,0.0,0.0,0.026489258
0.0,0.0,0.0,0.099733286,-0.0033518763,0.9950086,0.99501425,0.00033596865,-0.09973271,-2.9103834e-11,-0.9999944,-0.003368672,0.014604663276672314,0.013024453389644624,0.022313211059570293,0.0004043474341314535,-0.00017287075278430363,-4.061687104924363e-06,0.0,0.0,0.0,0.027832031
0.0,0.0,0.0,0.099733286,-0.0033518763,0.9950086,0.99501425,0.00033596865,-0.09973271,-2.9103834e-11,-0.9999944,-0.003368672,0.06248869647979727,-0.0013407565712928726,-0.04711863708496189,0.0007147691793597825,-0.00017871018187684646,-0.0002396345640942092,0.0,0.0,0.0,0.027954102
0.0,0.0,0.0,0.099733286,-0.0033518763,0.9950086,0.99501425,0.00033596865,-0.09973271,-2.9103834e-11,-0.9999944,-0.003368672,0.06967130146026612,0.017812856709957123,-0.013599813842773756,0.0010595518407643142,-8.87523474176766e-05,-0.00030643546048760695,0.0,0.0,0.0,0.027832031
0.0,0.0,0.0,0.099733286,-0.0033518763,0.9950086,0.99501425,0.00033596865,-0.09973271,-2.9103834e-11,-0.9999944,-0.003368672,0.0888249147415161,-0.022888571512699123,0.019919009399414378,0.0014983786552680732,-0.00020275144324408384,-0.00020530823618809704,0.0,0.0,0.0,0.027709961
0.0,0.0,0.0,0.099733286,-0.0033518763,0.9950086,0.99501425,0.00033596865,-0.09973271,-2.9103834e-11,-0.9999944,-0.003368672,-0.06679819316864022,0.024995461690425873,0.0438610260009753,0.0011568957961485317,-7.676037757573404e-05,1.5023434997719941e-05,0.0,0.0,0.0,0.027709961
0.0,0.0,0.0,0.099733286,-0.0033518763,0.9950086,0.99501425,0.00033596865,-0.09973271,-2.9103834e-11,-0.9999944,-0.003368672,-0.10031701641082769,0.005841848409175874,-0.03514762878418054,0.0006495262351136505,-4.7167333641975996e-05,-0.00016078982609817136,-0.002804272,0.0,0.0,0.027954102
0.0,0.0,0.0,0.099733286,-0.0033518763,0.9950086,0.99501425,0.00033596865,-0.09973271,-2.9103834e-11,-0.9999944,-0.003368672,0.033758276557922295,-0.07077260471582413,0.03428421936035164,0.0008150699867276938,-0.00040079452055288676,1.1435219834077687e-05,-0.002804272,0.0,0.0,0.027832031
0.0,0.0,0.0,0.099733286,-0.0033518763,0.9950086,0.99501425,0.00033596865,-0.09973271,-2.9103834e-11,-0.9999944,-0.003368672,-0.014125756645202658,0.03936067165136337,0.03428421936035164,0.000740365853568042,-0.00020198718969330546,0.0001827991405366655,-0.002804272,0.0,0.0,0.027832031
0.0,0.0,0.0,0.099733286,-0.0033518763,0.9950086,0.99501425,0.00033596865,-0.09973271,-2.9103834e-11,-0.9999944,-0.003368672,0.06009449481964113,0.036966469991207125,-0.011205612182617841,0.0010371364983984073,-1.614490378880332e-05,0.000125857083920893,-0.002804272,0.0,0.0,0.028320312
0.0,0.0,0.0,0.099733286,-0.0033518763,0.9950086,0.99501425,0.00033596865,-0.09973271,-2.9103834e-11,-0.9999944,-0.003368672,-0.014125756645202658,-0.018100168192386627,0.015130606079100772,0.000961322032680402,-0.00010656502023179243,0.0002008808288967924,-0.002804272,0.0,0.0,0.027832031
0.0,0.0,-0.100487,0.09974227,-0.0030729333,0.9950086,0.9950094,0.0031187807,-0.09973271,0.0027967417,-0.99999046,-0.003368672,-0.050125029468536475,-0.32244743338525295,0.05583203430175665,0.0007058902751743176,-0.0017182693620568983,0.0004790365962610917,-0.002804272,-0.008974367,0.0,0.027832031
0.0,0.0,-0.116208285,0.09975169,-0.0027503194,0.9950086,0.9949941,0.006336936,-0.09973271,0.006031009,-0.99997616,-0.003368672,0.00963959178924556,0.5148202510088682,-0.03993603210449237,0.0007505587827446738,0.0008644232397977275,0.0002769612527573244,-0.002804272,0.0053541264,0.0,0.027832031
0.0,0.0,0.0,0.09975169,-0.0027503194,0.9950086,0.9949941,0.006336936,-0.09973271,0.006031009,-0.99997616,-0.003368672,-0.03824444141387939,-0.33272713668644427,-0.11176208190918047,0.0005555837817615534,-0.0008035345598334825,-0.0002832339630523646,-0.002804272,-0.0039063455,-0.0031105657,0.027832031
0.0,0.0,-0.06331549,0.09975638,-0.0025745328,0.9950086,0.9949814,0.008090303,-0.09973271,0.007793156,-0.999964,-0.003368672,0.6033565423965452,0.2689241270303726,-0.042330233764648284,0.003569588574835472,0.0005451037481175481,-0.0004934689620603442,0.013988366,0.0035783593,-0.0031105657,0.027832031
0.10338078,0.050380062,0.0,0.09835498,0.00030117296,0.9951514,0.9951209,0.0078040753,-0.09835432,0.0077958577,-0.99996954,-0.00046786643,-0.0583548421859742,0.2532883123151958,0.5787917678833008,0.0032599664210314237,0.0018088197909529391,0.0024029572221664617,0.013988366,0.010658806,0.013069038,0.027954102
0.065010175,0.0,0.0,0.09835498,0.0021017648,0.99514925,0.9951209,0.0076261037,-0.09836828,0.0077958577,-0.99996877,0.0013414444,0.10445087070465076,-0.1590406732082367,-0.1801501312255862,0.00376592094244952,0.001004572325956991,0.0014901917799276985,0.016895447,0.0062323813,0.008055095,0.027832031
0.0,0.0,0.0,0.09835498,0.0021017648,0.99514925,0.9951209,0.0076261037,-0.09836828,0.0077958577,-0.99996877,0.0013414444,0.04459582920074456,-0.1925594964504242,0.18855692443847616,0.003970070483740995,3.6751982075085006e-05,0.002425525443220441,0.016895447,0.0008730594,0.013303017,0.027832031
0.0,0.0,0.0,0.09835498,0.0021017648,0.99514925,0.9951209,0.0076261037,-0.09836828,0.0077958577,-0.99996877,0.0013414444,0.6096274209976196,0.17854176087379453,-0.08917046813964902,0.006998357236310388,0.0009292770265336822,0.0019675454753060933,0.033862617,0.005842239,0.013303017,0.027832031
0.0,0.0,0.0,0.09835498,0.0021017648,0.99514925,0.9951209,0.0076261037,-0.09836828,0.0077958577,-0.99996877,0.0013414444,0.42287969150543203,-0.027359581899642944,0.07124104309082036,0.009077763907655996,0.000787832731902799,0.0023139129633836645,0.04578708,0.005842239,0.013303017,0.028198242
0.0,0.0,0.0,0.09835498,0.0021017648,0.99514925,0.9951209,0.0076261037,-0.09836828,0.0077958577,-0.99996877,0.0013414444,0.24331456699371334,0.5616140264987945,-0.18733273620605573,0.010248947923086284,0.0035919637007372582,0.0013656797175364676,0.052677825,0.021747325,0.007997695,0.028320312
0.0,0.0,0.0,0.09835498,0.0021017648,0.99514925,0.9951209,0.0076261037,-0.09836828,0.0077958577,-0.99996877,0.0013414444,0.5018883462905883,0.02052445130348205,-0.007767611694337262,0.012707144914923793,0.003676626138750982,0.001320013260477099,0.06689146,0.021747325,0.007997695,0.028320312
0.0,0.0,0.0,0.09835498,0.0021017648,0.99514925,0.9951209,0.0076261037,-0.09836828,0.0077958577,-0.99996877,0.0013414444,0.3414768350601196,-0.21650151305198667,0.052087429809569485,0.014350993365649772,0.002575735442797294,0.001573850343222561,0.076562196,0.0156159345,0.007997695,0.028320312
0.0,0.0,0.0,0.09835498,0.0021017648,0.99514925,0.9951209,0.0076261037,-0.09836828,0.0077958577,-0.99996877,0.0013414444,0.1523349039077757,-0.08482042174339294,-0.043680636596679534,0.015040912918360402,0.002138754656866343,0.0013475779085230506,0.080857776,0.0156159345,0.007997695,0.028198242
0.0,0.0,0.0,0.09835498,0.0021017648,0.99514925,0.9951209,0.0076261037,-0.09836828,0.0077958577,-0.99996877,0.0013414444,0.16430591220855706,0.5879502447605133,0.03532801818847631,0.015787237914811385,0.005067812107384578,0.0015174801099228168,0.0854508,0.032051556,0.007997695,0.027954102
0.0,0.0,0.0,0.09835498,0.0021017648,0.99514925,0.9951209,0.0076261037,-0.09836828,0.0077958577,-0.99996877,0.0013414444,0.3678130533218382,0.2719156256198883,-0.11311248474121172,0.01754736699184652,0.006402051174947097,0.0009443302856671441,0.095687784,0.03961952,0.004849545,0.027832031
0.0,0.0,0.0,0.09835498,0.0021017648,0.99514925,0.9951209,0.0076261037,-0.09836828,0.0077958577,-0.99996877,0.0013414444,0.01586540927886959,0.030101257944107056,-0.07241105651855584,0.017538957203281635,0.006520547208792898,0.0005775533516460291,0.095687784,0.03961952,0.004849545,0.027832031
0.0,0.0,0.096562006,0.09836027,0.0018374266,0.99514925,0.9951378,0.004951672,-0.09836828,0.0051083965,-0.9999861,0.0013414444,-0.06079982700347908,0.8394848684042692,-0.0029792083740236563,0.017147263282247832,0.01068536881477028,0.0005597695430176806,0.095687784,0.06298409,0.004849545,0.027832031
0.050487973,0.0,0.14505817,0.09836966,0.0028342786,0.995146,0.9951494,0.00081399595,-0.09837231,0.0010888586,-0.9999957,0.002740458,-0.06567835254669196,0.8394918792426586,-0.06519698028564491,0.01673313520310313,0.01482940136690972,0.00023098579387436768,0.095687784,0.08624637,0.004849545,0.027709961
0.0,0.0,0.18489432,0.09838289,0.002330253,0.995146,0.9951405,-0.0042845774,-0.09837231,-0.0040345485,-0.99998814,0.002740458,-0.41296461076736457,0.5546321331351995,-0.23518529815673794,0.014584646473250794,0.01752841502575117,-0.000946095625878694,0.08424455,0.101615205,-0.0016674303,0.027709961
0.0,0.0,0.19222203,0.09839399,0.0018015692,0.995146,0.9951031,-0.009631798,-0.09837231,-0.00940782,-0.999952,0.002740458,-0.8847289109230041,0.5621017075508833,0.07127251434326176,0.01008807868626952,0.02025128148837683,-0.0005850025760329918,0.059512746,0.11732826,-0.0016674303,0.027954102
0.064077556,0.0,0.28175342,0.09841215,0.0028090794,0.99514186,0.9949957,-0.017645285,-0.09834788,-0.017283294,-0.9998404,0.0045315316,-1.227274032306671,1.06957715151906,-0.005301884460449102,0.003901268131304818,0.025497910838530247,-0.0006085869854550723,0.025205404,0.14722733,-0.0016674303,0.027954102
0.0,0.0,0.18196324,0.09842532,0.0023018993,0.99514186,0.9948916,-0.022772517,-0.09834788,-0.022435497,-0.99973804,0.0045315316,-1.2944381598472594,0.41125222931206223,0.05455315704345587,-0.002590429008588003,0.02742668243089791,-0.00033277826531051763,-0.01145349,0.15887412,-0.0016674303,0.028320312
0.0,0.0,0.11561407,0.09843222,0.001985177,0.99514186,0.99481314,-0.025973735,-0.09834788,-0.025652314,-0.9996607,0.0045315316,-1.1149392560958862,-0.4212836109817028,0.059341560363769474,-0.008152173144024494,0.025183130963834906,-3.440657216511765e-05,-0.042484514,0.14714895,-0.0016674303,0.027832031
0.0,0.0,0.0,0.09843222,0.001985177,0.99514186,0.99481314,-0.025973735,-0.09834788,-0.025652314,-0.9996607,0.0045315316,-1.07423782787323,-1.3981178883254528,0.10004298858642535,-0.013482601417670522,0.018066625867388466,0.0004659804036278348,-0.07238273,0.10823649,0.0011169693,0.027832031
0.0,0.0,-0.15284687,0.098422885,0.0024038935,0.99514186,0.99491465,-0.021741526,-0.09834788,-0.021399487,-0.99976075,0.0045315316,-0.8443048827171326,-0.8538653932392597,0.04258214874267452,-0.01763671282416783,0.013706965771855225,0.0006765612453230682,-0.095881455,0.08447168,0.0011169693,0.027832031
0.0,0.0,-0.25463554,0.09840338,0.0031013587,0.99514186,0.99504375,-0.014689996,-0.09834788,-0.0143136205,-0.9998873,0.0045315316,-1.0452305443763732,-0.5684684672951698,0.14074441680908123,-0.022774681981928856,0.0107960886065201,0.0013769005231418592,-0.12497234,0.068650045,0.0050341724,0.027832031
0.09432105,0.0,-0.28314704,0.098365575,0.0064891176,0.99512917,0.99512964,-0.0071061677,-0.09831927,-0.0064335545,-0.99995375,0.007156515,-0.35054913024902346,-1.2186950398802756,-0.1727748840332044,-0.024413554223264328,0.0046486329640861215,0.0005061416003601279,-0.13472883,0.034731288,0.00022549646,0.027832031
0.0,0.0,-0.31259114,0.098305404,0.0073446576,0.9951292,0.9951538,0.0015517748,-0.09831927,0.002266333,-0.99997187,0.007156515,-0.11533973894119265,-1.2077546262741088,0.4018335144042968,-0.02486818514685397,-0.001413383332104853,0.0025127784643798113,-0.13793898,0.001117023,0.0114093395,0.027832031
0.12083407,0.0,-0.3307106,0.09821776,0.011614462,0.9950972,0.9950985,0.010419512,-0.09833949,0.011510581,-0.9998783,0.010534151,0.357159367275238,-1.3421186871886253,-0.14613158264160298,-0.02295804738474351,-0.008116909851387456,0.0017695566588498972,-0.1279549,-0.036400698,0.007324362,0.027954102
0.1482797,0.0,-0.31512251,0.09809411,0.016582027,0.99503905,0.9949705,0.018740693,-0.09839965,0.02027938,-0.9996869,0.0146602765,0.3391927804946899,-1.0881379782676697,0.0028677734374991104,-0.021147293245346345,-0.013517015193468866,0.0017750477427431431,-0.11851448,-0.06668579,0.007324362,0.027832031
0.17559211,0.063436724,-0.29300615,0.096187405,0.022212561,0.9951154,0.994959,0.026344387,-0.09676032,0.028364992,-0.99940616,0.019566588,0.683108613872528,-0.8788290128231048,-0.16785391998291033,-0.01762601370975697,-0.017843575181617048,0.0009269029041148758,-0.09958556,-0.09103811,0.0026731365,0.027709961
-0.060493648,0.0,-0.3004671,0.09600529,0.021340694,0.99515206,0.99470323,0.034826793,-0.09670882,0.03672178,-0.99916553,0.017884098,0.8141438269615173,-0.46105059139728544,-0.3741071685791013,-0.013467164506400602,-0.020059610262695392,-0.0009482674533012052,-0.07692628,-0.10387008,-0.007739026,0.027832031
-0.07355031,0.0,-0.23944718,0.09586714,0.01993672,0.9951945,0.9944472,0.04168285,-0.09663016,0.043409027,-0.998932,0.015829995,1.277550950717926,0.026479512119293197,0.48021560516357376,-0.00701207393027897,-0.01982691465078545,0.0014575519097831694,-0.041213494,-0.10387008,0.0056849695,0.027954102
0.071138814,-0.054472923,-0.28328025,0.097207874,0.02266813,0.99500597,0.99394065,0.049328566,-0.098227575,0.051308848,-0.9985254,0.017735649,1.302987150287628,-1.4147152572870254,0.14683744659423859,-0.00046207780918943505,-0.02680135636396665,0.0021844513832054466,-0.0049487147,-0.14324448,0.009771754,0.027832031
0.0,-0.09310999,-0.31192496,0.099596,0.023526171,0.99474984,0.9932137,0.057992324,-0.10081372,0.06005961,-0.99803984,0.01759071,0.9281134140968321,-0.06304592721462252,-0.3223617080688488,0.0041807996503406735,-0.026982579218219928,0.0005617205859451756,0.020995863,-0.14324448,0.0007604221,0.027954102
-0.16627926,0.0,-0.13366158,0.09951478,0.01919982,0.9948509,0.9929852,0.062243897,-0.100529395,0.06385354,-0.99787635,0.012870946,1.3023886210441589,1.6376688761949538,-0.9577950347900401,0.010671838757309765,-0.01865932194115406,-0.004230063190934751,0.058038898,-0.09666527,-0.02648155,0.028442383
-0.32695615,0.0,0.060589567,0.099539675,0.009816388,0.9949852,0.99309134,0.06146811,-0.099956624,0.062141072,-0.9980608,0.0036300505,1.1177960785865784,0.7772519202589988,0.39363858184814404,0.01620745995645611,-0.014679765730153295,-0.0022407199657393565,0.08969523,-0.07465325,-0.015333583,0.028320312
0.0,0.0,0.20407961,0.09959498,0.009238443,0.9949852,0.9934314,0.055702664,-0.099956624,0.05634677,-0.9984047,0.0036300505,1.3016187078475951,0.24171062107086178,0.27153429718017463,0.022634516195911804,-0.013397813796148218,-0.0008718448800097867,0.12671636,-0.06777842,-0.0076105003,0.028442383
0.0,0.0,0.13306737,0.0996288,0.00886629,0.9949852,0.99363256,0.051990792,-0.099956624,0.052616313,-0.99860823,0.0036300505,1.239044798183441,0.42484842563867564,-0.17139300994873174,0.028716567605849452,-0.0112065825989741,-0.0017244507053533966,0.161504,-0.055850305,-0.01242256,0.028076172
0.0,0.0,0.14492494,0.09966375,0.008464359,0.9949852,0.9938342,0.0479825,-0.099956624,0.048587944,-0.9988123,0.0036300505,0.862819622993469,0.8405096551179886,-0.14026838836669953,0.03288708288278755,-0.0069480014103892864,-0.0024171703936601272,0.18551803,-0.032457214,-0.016326513,0.027832031
0.0,0.0,0.26829708,0.09972417,0.0077199084,0.9949852,0.99416476,0.04055995,-0.099956624,0.041128207,-0.9991473,0.0036300505,0.6156367795944213,1.0774997529625892,0.02253732452392576,0.035800831366345716,-0.001525762638524394,-0.0022923979190721975,0.20265245,-0.0024682072,-0.016326513,0.027832031
0.058215387,0.0,0.31466153,0.09979501,0.008458378,0.9949721,0.99448115,0.031689823,-0.100015156,0.032376457,-0.999462,0.005249209,0.5455248424530028,0.5915700966358184,-0.1904207382202152,0.038349451421779,0.00143971665784732,-0.003233039620577913,0.21783552,0.013996391,-0.021626309,0.027832031
0.0,0.0,0.2973415,0.099861875,0.007628598,0.9949721,0.9947102,0.023422685,-0.100015156,0.024067895,-0.9996966,0.005249209,0.15941649274826042,0.48461432440280916,-0.09944107513427802,0.038954786628411404,0.0038555896965721294,-0.003714079798146414,0.22229186,0.02754335,-0.021626309,0.027954102
0.0,0.0,0.26496628,0.099915415,0.0068919538,0.9949721,0.9948559,0.016086508,-0.100015156,0.01669493,-0.99984694,0.005249209,-0.5449927661895753,0.7718077117204666,-0.12577729339599664,0.03603504886432147,0.007695350306691602,-0.004324395866135665,0.2071236,0.049024325,-0.025126945,0.027832031
0.0,0.0,0.4100551,0.09998757,0.0057512037,0.9949721,0.9949747,0.0047315015,-0.100015156,0.0052829236,-0.99997234,0.005249209,-1.0604387887001037,1.5273556452929973,0.0035095962524405167,0.030552679676499342,0.015293651781623131,-0.004285225905542784,0.17760944,0.091533735,-0.025126945,0.027832031
0.0,0.0,0.39566615,0.10004573,0.004630443,0.9949721,0.99496526,-0.0064178742,-0.100015156,-0.005922487,-0.99996877,0.005249209,-1.0705739716529845,0.41523438678979874,0.19983413238525394,0.02504704641985192,0.01729335545666401,-0.0032646291140888007,0.14729045,0.1032933,-0.019467581,0.028320312
0.0,0.0,0.3072006,0.10008167,0.0037748811,0.9949721,0.994874,-0.01492461,-0.100015156,-0.014472021,-0.99988157,0.005249209,-1.0972551815986633,0.7011751913845539,-0.10662368011474577,0.019435535279759344,0.020712764636303456,-0.0037814243690920853,0.11675161,0.12280843,-0.022435134,0.027832031
0.0,0.0,0.21500458,0.10010246,0.0031759234,0.9949721,0.9947669,-0.020877684,-0.100015156,-0.020455066,-0.99977696,0.0052492083,-1.4446140382766723,-0.1358337906509638,0.2094109390258776,0.012115287411977184,0.01993003185986712,-0.002715462552117237,0.07654507,0.1190279,-0.016606802,0.027832031
0.0,0.0,0.2487121,0.10012205,0.0024829218,0.9949721,0.99459857,-0.02776312,-0.100015156,-0.027375195,-0.99961144,0.0052492083,-1.70577007188797,0.802163481593132,-0.08747006683349667,0.0035258606154774472,0.023841199108533443,-0.003139235573524134,0.029070022,0.14135374,-0.016606802,0.027832031
0.0,0.0,0.18769218,0.10013366,0.001959865,0.9949721,0.99443996,-0.03295838,-0.100015156,-0.03259665,-0.99945486,0.005249209,-1.5837771883010863,0.32355610042512417,0.0250574111938473,-0.004410654629105372,0.025339773615116398,-0.002998252339687277,-0.015009714,0.15035896,-0.016606802,0.027832031
0.0,0.0,0.08950075,0.10013821,0.0017115213,0.9949721,0.99435514,-0.035424553,-0.100015156,-0.035075262,-0.99937093,0.005249209,-1.4736876021385192,-0.21514937093555925,0.19265152740478442,-0.011757039366652441,0.02413732789236302,-0.002020003440964918,-0.05584554,0.14439718,-0.011268436,0.027709961
0.0,0.0,-0.12073815,0.10013189,0.002048015,0.9949721,0.99446857,-0.032082934,-0.100015156,-0.03171679,-0.99948317,0.005249209,-1.131256146812439,-0.4961071080178022,-0.06592225189208989,-0.017354534903881374,0.021536105712812195,-0.0023395146832205426,-0.0873307,0.13058951,-0.011268436,0.027832031
0.0,0.0,-0.21746403,0.100117736,0.0026513645,0.9949721,0.99464387,-0.026089763,-0.100015156,-0.02569341,-0.99965614,0.005249209,-1.2029462980270385,-0.4947166682124138,-0.10183527679443394,-0.023282493719497158,0.018954841843186066,-0.0028369934937766098,-0.12066429,0.11688094,-0.0140902875,0.027709961
0.0,0.0,-0.25157124,0.10009672,0.0033522977,0.9949721,0.9948022,-0.019124888,-0.100015156,-0.018693447,-0.99981153,0.005249209,-1.1141590748786927,-0.5613006792306899,0.08970085601806588,-0.028736876625293135,0.016053564237816686,-0.002374304246217397,-0.1516736,0.1012588,-0.0140902875,0.027832031
0.07033943,0.0,-0.29593724,0.10005769,0.006124474,0.9949628,0.99492675,-0.01112628,-0.09998555,-0.010457873,-0.9999194,0.0072066695,-0.821691797542572,-0.40595429423451423,0.1472513412475589,-0.03270165122987953,0.01394352494545503,-0.0016261760187485153,-0.17454295,0.08996027,-0.009991984,0.027832031
0.10044969,0.0,-0.32884535,0.09998472,0.009821601,0.9949405,0.9949882,-0.0022993004,-0.09996678,-0.0013058305,-0.9999491,0.010002268,-0.6462145429611206,-1.47095349162817,0.018178074645994968,-0.035769215688535735,0.0065190398625869055,-0.001527154765424798,-0.19252841,0.049020644,-0.009991984,0.027832031
0.12336546,0.0,-0.34083617,0.099870846,0.014185712,0.99489933,0.99496686,0.0067962,-0.0999745,0.008179745,-0.99987626,0.013435567,-0.4727388146400452,-1.2590636467695235,0.2436288055419915,-0.03795406368329328,0.00019112642942635278,-0.00030137496388771626,-0.20568569,0.013978345,-0.0032112994,0.027832031
0.0,0.0,-0.28381318,0.099755675,0.014974158,0.99489933,0.99488217,0.014655328,-0.0999745,0.01607761,-0.9997805,0.013435567,0.19874325675964344,-0.4573925900697708,-0.28309555969238254,-0.036770577081078594,-0.002096792153069633,-0.0017153458875301905,-0.20015426,0.0012481805,-0.011090424,0.027832031
0.0,0.0,-0.16203983,0.099687435,0.015421922,0.99489933,0.99480623,0.019122316,-0.09997448,0.020566579,-0.9996982,0.013435567,0.7356995432853697,-1.0913661646604538,0.2436288055419915,-0.03290822647924635,-0.007543139015606553,-0.0004886251303825818,-0.17976806,-0.028993534,-0.0043394794,0.027709961
-0.051167466,0.0,-0.15924197,0.099621244,0.014446742,0.9949206,0.9947114,0.02367349,-0.09994401,0.02499711,-0.9996154,0.012011954,1.107436245727539,-0.8258248430967331,-0.029514270019530997,-0.027206504118212425,-0.011634547536012185,-0.0006337533548283239,-0.14894585,-0.051977918,-0.0043394794,0.027832031
-0.057296097,0.0,-0.14272131,0.09956622,0.013255761,0.9949427,0.9946092,0.027783867,-0.09990298,0.028967647,-0.9995261,0.010417964,1.859743783378601,-0.41934813170433044,-0.14225441741943357,-0.017771752680728357,-0.013673115456853775,-0.00134185667515135,-0.0971854,-0.06364923,-0.008298709,0.027832031
-0.088072516,-0.060335096,-0.14671825,0.10117974,0.011235843,0.9948047,0.9943192,0.0320727,-0.101492584,0.033046428,-0.99942243,0.0079269055,2.1698653924942013,-0.38559167560338975,-0.028401332092284903,-0.0068335669548537075,-0.015532708257586453,-0.0014771540522370177,-0.037058517,-0.07433396,-0.008298709,0.027709961
0.0,0.0,-0.11847322,0.10114232,0.011567946,0.99480474,0.9942086,0.035336766,-0.101492584,0.036327243,-0.9993086,0.0079269055,1.8039117756843566,-0.5276435572862626,-0.07868052062988262,0.002220159758342345,-0.018093262502729836,-0.0018631708851252458,0.012927808,-0.08895494,-0.008298709,0.027709961
-0.13870038,-0.06086802,-0.27355438,0.102744,0.008517478,0.9946714,0.9937382,0.04326442,-0.10301805,0.043911334,-0.99902743,0.0040189805,1.5826342823028563,0.18638266180753704,-0.31921505737304656,0.010122230371064914,-0.017070882881178504,-0.0034499303175648524,0.056782544,-0.08379029,-0.017144145,0.027709961
-0.059028104,0.0,-0.18495561,0.10270316,0.0074169785,0.99468446,0.993503,0.048525315,-0.10294298,0.049030904,-0.9987945,0.0023850836,1.1544642048835754,1.4658743457674979,-0.13019805755615366,0.015843940243627466,-0.00965615673793512,-0.004083670953757796,0.0887727,-0.043170966,-0.020751929,0.027709961
0.0,0.0,0.0,0.10270316,0.0074169785,0.99468446,0.993503,0.048525315,-0.10294298,0.049030904,-0.9987945,0.0023850836,1.1951656331062317,0.8792949390292167,-0.08231402435302826,0.02174054870794049,-0.005211401259099361,-0.004474822720754148,0.12203658,-0.018698402,-0.020751929,0.027832031
0.0,0.0,0.16810718,0.10273674,0.006936373,0.99468446,0.99371916,0.043876417,-0.10294298,0.044357244,-0.99901295,0.0023850836,0.96260573015213,0.5942103623390197,0.06373227691650385,0.026444874615161436,-0.002214292441108766,-0.004133787222567858,0.14882785,-0.0021603203,-0.020751929,0.027832031
0.0,0.0,0.23005971,0.102779046,0.0062784045,0.99468446,0.99397963,0.0375127,-0.102942966,0.037959624,-0.99927646,0.0023850836,0.6102519400596618,0.6292572913587093,-0.015276377868653768,0.02936390994238394,0.0009430654778903248,-0.004189500175798288,0.1658124,0.015353188,-0.020751929,0.027832031
0.0,0.0,0.2329908,0.10281839,0.005597169,0.99468446,0.9942065,0.030924965,-0.10294298,0.031336773,-0.99950606,0.0023850836,0.5284713689804077,0.9829564021348953,-0.09667923431396552,0.03185944723757406,0.00585313216117535,-0.004651948846489124,0.18084338,0.04331081,-0.020751929,0.028442383
0.0,0.0,0.28388512,0.10285957,0.0047810515,0.99468446,0.9944206,0.023034213,-0.10294298,0.023403954,-0.99972326,0.0023850836,0.42512539958953854,0.6388435018002987,0.14752933502197152,0.03382577699933388,0.009018084009370967,-0.0038910424271468205,0.19272739,0.061169107,-0.01662788,0.027954102
0.050621204,0.0,0.30053905,0.102901824,0.005321901,0.99467736,0.99457777,0.014570405,-0.10296946,0.015040852,-0.9998797,0.0037937202,0.11586777582168573,1.2800857857108114,-0.15646656494140743,0.03423598699344564,0.015373422517878169,-0.0046539200397181235,0.19595222,0.0967965,-0.020982662,0.027832031
0.06314494,0.0,0.31572738,0.10295228,0.006165551,0.9946672,0.99466664,0.0056491685,-0.10298724,0.006254023,-0.9999651,0.005551071,-0.31796713161468515,0.7069551408588886,0.08305182952880763,0.032474971400404985,0.01883133110958322,-0.004215391291875495,0.18710256,0.1164725,-0.020982662,0.027832031
0.0655431,0.0,0.3664885,0.103019066,0.0069295643,0.99465525,0.9946716,-0.0046847216,-0.10298812,-0.003946013,-0.9999651,0.007375254,-0.6107009013175965,1.1569131164193152,-0.10597566070556752,0.02925909203681498,0.024521740036131882,-0.0047241926389439545,0.17010552,0.14867175,-0.02393218,0.027832031
0.059814163,0.0,0.34543797,0.103088886,0.007594636,0.99464315,0.99457973,-0.01441896,-0.10297222,-0.013559676,-0.99986726,0.009039903,-0.9561361946105957,0.7171779153943061,0.1910216934204101,0.024332115603577925,0.027985020912922754,-0.0037454632086471847,0.14349431,0.16863227,-0.018615657,0.027832031
0.056216918,0.0,0.32931697,0.1031613,0.00820569,0.9946308,0.9944051,-0.023695333,-0.10294241,-0.022723384,-0.9996856,0.010604218,-0.9855617835044861,0.5197756499052048,0.004392219543456477,0.019282646108037604,0.030443974057884165,-0.0037047747948866666,0.116064124,0.18309867,-0.018615657,0.027832031
0.093788125,0.0,0.29894027,0.103237525,0.009958603,0.9946069,0.99417007,-0.032311626,-0.10286867,-0.031112926,-0.9994283,0.013236313,-1.2664151439666749,0.15339421442747114,0.2679842376708983,0.012854157157664041,0.0310587252597321,-0.0023463297325577413,0.08050803,0.18740539,-0.011091686,0.028076172
0.0,0.0,0.23712096,0.10330207,0.009265104,0.9946069,0.9939307,-0.038987085,-0.10286867,-0.037823725,-0.9991968,0.013236313,-1.4729361366271974,-0.25175087071657176,-0.02171416320800823,0.005425205688739734,0.02964467727985058,-0.0024431688999349936,0.03879402,0.18027572,-0.011091686,0.028320312
0.0,0.0,0.13866308,0.10333765,0.008859367,0.9946069,0.99376994,-0.042889934,-0.10286867,-0.04174726,-0.9990406,0.013236313,-1.4684893275260924,0.1591585005402565,-0.1342416412353522,-0.0019443669773344264,0.030292246396152613,-0.0031021612616120796,-0.0027940583,0.18478315,-0.014893451,0.028320312
0.0,0.0,0.12174271,0.10336758,0.008503028,0.9946069,0.99361604,-0.046315987,-0.102868654,-0.045191493,-0.99889064,0.013236311,-1.3227303206443786,-0.3282319802165031,0.1530625579833984,-0.008548296745669648,0.028499625263089336,-0.0023213376653870273,-0.040254194,0.17548752,-0.010558671,0.028320312
0.0,0.0,0.0,0.10336758,0.008503028,0.9946069,0.99361604,-0.046315987,-0.102868654,-0.045191493,-0.99889064,0.013236311,-1.317941917324066,-0.8166491188883781,0.18658138122558476,-0.015095264848561631,0.024273881542332,-0.0013768240709321681,-0.07757872,0.15235975,-0.0052746283,0.028320312
0.0,0.0,-0.106082715,0.10334214,0.008806845,0.9946069,0.9937479,-0.043395005,-0.102868654,-0.042255014,-0.99901927,0.013236313,-1.322486060810089,-0.47240652714967724,0.1722161712646475,-0.02163221882836927,0.021790479498871952,-0.0005088590942542697,-0.11422476,0.13926938,-0.0005025249,0.027709961
0.0,0.0,-0.20320828,0.10329091,0.009388614,0.9946069,0.99397653,-0.037798632,-0.10286866,-0.03662897,-0.99924123,0.013236311,-1.1903131715774535,-0.5977016100764274,-0.1102996246337895,-0.02747562359211469,0.018693019050995456,-0.001057812921951946,-0.14720829,0.12270709,-0.0035589233,0.027709961
0.0,0.0,-0.3359066,0.10319819,0.010358099,0.9946069,0.99428767,-0.028463557,-0.10286866,-0.027244516,-0.9995412,0.013236313,-0.961973937702179,-0.7961506053447723,0.1243321380615221,-0.03214811516266501,0.014618800929016615,-0.0004308631670345757,-0.1740994,0.10045142,-8.3330044e-05,0.027954102
0.0,0.0,-0.35655746,0.103090815,0.011377212,0.9946069,0.99452037,-0.018638413,-0.10286866,-0.017367525,-0.9997615,0.013236311,-0.3719695265769959,-0.7101660378813743,0.2440422210693356,-0.03384722221973666,0.01099487673496466,0.0007915022541472751,-0.18440667,0.08077274,0.00667907,0.027709961
0.1785232,0.0,-0.3985253,0.10293087,0.017461699,0.99453527,0.9946688,-0.008117166,-0.10280219,-0.006277698,-0.99981457,0.018204104,-0.23396455669403082,-0.9289887226343154,0.4937267929077134,-0.03484780889210813,0.006294958738118258,0.003256178707415106,-0.19091837,0.0549171,0.02042049,0.027832031
0.24673758,0.0,-0.40265545,0.10269045,0.025443388,0.9943879,0.99470115,0.0023245437,-0.10278228,0.0049266363,-0.9996736,0.025069853,0.22324182939529402,-0.5985987891674042,-0.36916570739746213,-0.03355736070067112,0.0032704899985906456,0.0013940692768907197,-0.1847051,0.03825688,0.010145858,0.027832031
0.07380344,0.0,-0.36188668,0.10241869,0.028518919,0.9943325,0.99462837,0.012131968,-0.10279713,0.014994882,-0.99951965,0.02712318,0.302465177822113,-0.6807963864803315,0.02162131347656171,-0.0318772480080572,-0.00014984438380396528,0.0014952054978890745,-0.17628688,0.019308934,0.010145858,0.027832031
0.0,0.0,-0.3000674,0.10217802,0.02936953,0.9943325,0.9944931,0.02040174,-0.10279713,0.023305226,-0.99936044,0.02712318,0.7644622918128967,-0.715298470878601,-0.25610607910156347,-0.02789555030895243,-0.0037255875162779503,0.00020719907489181164,-0.15510365,-0.0005119587,0.0030491685,0.027709961
-0.14949211,0.0,-0.30952683,0.101940036,0.026125634,0.99444747,0.99427974,0.029356388,-0.102694064,0.03187634,-0.9992276,0.022983588,0.8912454837799071,-1.0289220499992369,-0.17580662384033197,-0.02329984513850813,-0.008851569828692745,-0.0006728700396843072,-0.13040727,-0.02902335,-0.0018224262,0.027709961
-0.18359932,0.0,-0.3077948,0.10173343,0.021897571,0.99457073,0.9939881,0.038436886,-0.10252009,0.04047315,-0.9990211,0.0178556,0.8908346862792969,-0.13839099395275117,-0.01179021911621092,-0.018729172481419108,-0.009499266949313035,-0.0007284567850669402,-0.10550479,-0.032891944,-0.0018224262,0.027954102
-0.23222871,0.0,-0.28034917,0.10158511,0.016286658,0.9946936,0.99365693,0.046816412,-0.102245785,0.048233233,-0.9987708,0.011427492,0.7821252456665038,0.42543881125450134,-0.11831478729248168,-0.014724900390679491,-0.007324576558293964,-0.001316388437604014,-0.08383213,-0.02110305,-0.0051009245,0.027709961
-0.0764814,0.0,-0.1047504,0.10153936,0.014425435,0.99472696,0.9935127,0.04999896,-0.102140486,0.051208746,-0.9986451,0.009254982,0.9980426217079161,0.4313355767250061,0.3961181350708003,-0.009661062780186514,-0.005131275791877464,0.0006707841799380076,-0.055445418,-0.008834839,0.006165619,0.028442383
0.074336365,0.0,0.0,0.10153936,0.016492452,0.9946948,0.9935127,0.049786605,-0.10224416,0.051208746,-0.9986237,0.011330153,1.0076194283485411,0.4114921772003174,0.02772006988525355,-0.004574660324542876,-0.00304815852691649,0.0008060306084645854,-0.027278323,0.0026680552,0.006165619,0.027954102
0.078466535,0.0,0.0,0.10153936,0.01866471,0.99465644,0.9935127,0.049563196,-0.10235265,0.051208746,-0.9985966,0.013511003,0.7586224556922911,0.9053918209791183,-0.14190012969970844,-0.0007586747444587056,0.0014940413706136845,9.249980692372013e-05,-0.006164319,0.027866948,0.0022162502,0.027832031
0.0,0.0,-0.09595714,0.10148937,0.018934634,0.99465644,0.9933774,0.05220474,-0.10235265,0.0538638,-0.9984569,0.013511003,0.6609400646209715,1.5875422285556793,-0.35498407745361327,0.002549818952368446,0.009424282306539012,-0.0016828830793789648,0.012150304,0.07185768,-0.007620345,0.027709961
-0.14069885,0.0,-0.07397398,0.10145418,0.01524839,0.9947234,0.9932674,0.054650247,-0.10214343,0.05591941,-0.9983891,0.009601224,0.3739737045288085,1.2829536005735396,-0.1257834945678713,0.004406938380250646,0.015791928897874015,-0.0023033861368214267,0.022558752,0.10756489,-0.011121155,0.027832031
-0.08101126,0.0,0.0,0.10145418,0.013005541,0.9947552,0.9932674,0.05488041,-0.10201995,0.05591941,-0.99840826,0.007350124,0.20159118499755846,1.031545992028713,-0.15481909027099583,0.005392859613337186,0.02087069921352821,-0.003065964657492299,0.028169444,0.1362749,-0.015430084,0.027832031
0.0,0.0,0.13266768,0.10150152,0.012630842,0.9947552,0.9934633,0.051212486,-0.10201995,0.052232493,-0.99860793,0.007350124,0.1317049110412598,0.7981171456336975,0.24501258697509698,0.006024419870476799,0.024756931445629057,-0.0018255718993293527,0.03183506,0.15848812,-0.0086108865,0.027832031
0.0,0.0,0.12920366,0.10154628,0.01226576,0.9947552,0.993641,0.04763966,-0.10201995,0.04864116,-0.9987893,0.007350124,0.5287126967430114,0.3898192504525184,-0.032714805603028196,0.00863786125483947,0.026582243040663506,-0.0019800180678478468,0.04655021,0.16933759,-0.0086108865,0.027832031
0.09418782,0.054510232,-0.051857598,0.10002404,0.015006998,0.99487185,0.99372476,0.048803087,-0.100644864,0.0500632,-0.99869573,0.010031335,1.0628679661750793,0.4712424051046371,-0.07693004913330093,0.01390901177944067,0.028805543850983373,-0.002354768223175112,0.07600224,0.1823957,-0.0086108865,0.027709961
0.0,0.0,-0.08263402,0.099989414,0.015235992,0.99487185,0.9936104,0.051078375,-0.100644864,0.05234987,-0.9985785,0.010031335,1.2762843290328978,-0.23245703473091126,-0.06495904083251958,0.020220888365707956,0.0274992309580739,-0.002667789586221835,0.11136803,0.17595433,-0.0086108865,0.027709961
-0.07621494,0.0,-0.1789602,0.09991784,0.013630534,0.9949023,0.99334437,0.05621748,-0.10053156,0.0573012,-0.99832547,0.0079226745,1.3009134679794312,0.47487966508865354,-0.18256770019531388,0.02662435126377657,0.029736133128726798,-0.0035672891392672947,0.1474163,0.18911323,-0.013669831,0.027709961
0.0,0.0,-0.1619066,0.09985568,0.01407867,0.9949023,0.99308217,0.06067348,-0.10053156,0.061779544,-0.99805844,0.007922675,0.6790177980422973,-0.6044189945697784,0.15262053222656213,0.029886318497669175,0.02656535749023427,-0.0027863500324381476,0.16623186,0.1723648,-0.009440722,0.027709961
0.07313728,0.0,-0.14751764,0.099792585,0.016524365,0.9948711,0.99282396,0.0645625,-0.10065959,0.06589469,-0.9977768,0.009962915,0.5694901644706725,-0.7763382141113281,-0.036221945190430205,0.03258433772753419,0.02255083963222646,-0.002953528008228108,0.18215144,0.15066296,-0.009440722,0.027954102
0.0,0.0,-0.11674121,0.099738605,0.016847096,0.9948711,0.9926099,0.06777384,-0.10065959,0.06912206,-0.99755853,0.009962916,0.3401650078773497,-1.4402360919475554,0.03799830627441381,0.034122241078283266,0.015236904974327548,-0.002748768836814898,0.19157739,0.11075407,-0.009440722,0.027709961
-0.05476471,0.0,-0.12473509,0.09968239,0.015681969,0.99489576,0.9923695,0.071356975,-0.10055402,0.07256964,-0.9973276,0.008449263,-0.3081239815711976,-1.3476479917764663,0.07128061828613141,0.03241100996503587,0.008422480490573578,-0.0023786219012001666,0.1830393,0.0734108,-0.009440722,0.027709961
-0.07408324,0.0,-0.09209343,0.0996445,0.013886022,0.9949262,0.992183,0.074107505,-0.100404054,0.07512572,-0.99715364,0.00639306,-0.6980150254249573,-1.1221113270044327,0.16196750335693366,0.028758879788085903,0.002769811453098546,-0.0015568912749094974,0.16361211,0.042180166,-0.0049328376,0.027832031
0.0,0.0,0.0,0.0996445,0.013886022,0.9949262,0.992183,0.074107505,-0.100404054,0.07512572,-0.99715364,0.00639306,-0.9781366196632385,-1.1436591419458388,0.12844868011474553,0.023724402290829283,-0.0029623333138961414,-0.0009068634179612222,0.13638858,0.010349808,-0.0013578499,0.027832031
0.0,0.0,0.101358324,0.09968327,0.013604869,0.9949262,0.9923881,0.071308255,-0.100404054,0.07231244,-0.9973616,0.00639306,-1.1197667486190797,-0.7554935975313186,-0.0415396377563475,0.01800694653627974,-0.006724989634983254,-0.0011100272896531537,0.1052232,-0.010677113,-0.0013578499,0.027832031
0.0,0.0,0.093497686,0.099718794,0.01334201,0.9949262,0.99257267,0.068691604,-0.100404054,0.06968267,-0.99754876,0.00639306,-1.383469989013672,-0.7386049355268478,0.2385819564819336,0.010999561858529981,-0.010384389364442578,8.843262920478013e-05,0.06621178,-0.031504475,0.005369742,0.028198242
0.0,0.0,0.0,0.099718794,0.01334201,0.9949262,0.99257267,0.068691604,-0.100404054,0.06968267,-0.99754876,0.00639306,-1.4696612487792968,-0.020344437479972846,0.12126607513427601,0.0035962578053408472,-0.01043418960502023,0.0006943208417301362,0.024411114,-0.031504475,0.008818838,0.028442383
0.06660895,0.0,0.060722798,0.0997432,0.015047296,0.99489945,0.9926892,0.066795066,-0.10053185,0.06796711,-0.9976533,0.008274924,-1.4651071513175964,-0.04150361411571503,0.32024230499267503,-0.0037472592402738388,-0.010589536727573703,0.0022920607624848607,-0.017081179,-0.031504475,0.0178882,0.028320312
0.078466535,0.0,0.11441499,0.09979478,0.016926711,0.9948641,0.9928992,0.0633694,-0.10067585,0.064748056,-0.99784666,0.010482572,-1.3506806670188904,0.24691176810264587,-0.04094263763427719,-0.010481926279166921,-0.009302030203422606,0.00207588727050105,-0.055168,-0.024541996,0.0178882,0.028198242
0.18212044,0.08235556,0.0,0.09749426,0.022014063,0.9949926,0.9931297,0.06285966,-0.098702475,0.06471775,-0.9977796,0.015734354,-1.2974709748268127,0.6386062134504318,-0.3031446731567389,-0.01691687152190515,-0.0060624889851533335,0.0005497844683648504,-0.091596015,-0.0066123786,0.009377058,0.028076172
0.15547419,0.12312432,-0.08636449,0.09404108,0.02653038,0.99521476,0.9933083,0.064818084,-0.09558884,0.06704393,-0.9975444,0.020257276,-1.0536306154251098,1.5122287475585936,0.07300677337646455,-0.022100440241421174,0.0015289671975654015,0.000912069412905349,-0.120792076,0.035291422,0.009377058,0.027709961
-0.12790866,0.0,-0.11367689,0.093960665,0.023213504,0.99530524,0.993093,0.06837668,-0.09534656,0.070269,-0.9973895,0.016628442,-0.7464008631706238,1.3740824826240539,0.2708567138671878,-0.025721942356067187,0.008391734774697844,0.0022617926351767613,-0.14202149,0.0743736,0.017080868,0.028442383
-0.061426267,0.0,-0.07384075,0.09391451,0.02170493,0.9953436,0.9929502,0.070580386,-0.09522778,0.07231866,-0.9972699,0.014923386,0.1470794569969176,1.5657357397317886,-0.289754592895509,-0.024857935359302266,0.016178454799483297,0.0008017107075233324,-0.13792798,0.11795121,0.009016409,0.027832031
0.09232258,0.09687776,-0.12979788,0.09115902,0.024584362,0.9955329,0.9929427,0.07391129,-0.09274704,0.07586125,-0.9969618,0.017673174,1.0641751947402953,1.499785920381546,-0.44719445037841865,-0.01941276970880428,0.02359649212739361,-0.0014382700979063776,-0.10843973,0.15951021,-0.003375332,0.027709961
0.12123376,0.0,-0.21253447,0.09100207,0.028482132,0.99544334,0.99248904,0.07947015,-0.09300581,0.08175705,-0.9964303,0.021036247,1.1518732003211976,1.0194399497509001,0.5376816925048828,-0.01355633985865427,0.02857570941551114,0.0012573297151075686,-0.07638076,0.18788329,0.011589441,0.027832031
0.17665796,0.0,-0.29420522,0.090746984,0.03409561,0.99529016,0.99181,0.08710246,-0.093413524,0.089877225,-0.9956157,0.025912074,1.9084955801010128,0.922454836654663,-0.3802211791992196,-0.003946080258855933,0.0330451050517069,-0.0006500628294640672,-0.023496421,0.21344447,0.0010535275,0.027709961
0.15907143,0.0,-0.28074887,0.090461925,0.03918732,0.99512863,0.991104,0.09440305,-0.09381356,0.0976195,-0.9947625,0.03029882,2.102768281364441,0.7107686360836027,0.13129444885253783,0.006587491549260551,0.03643372270686638,9.659728945942314e-06,0.034771208,0.23313984,0.0046916916,0.027709961
0.25086775,0.0,-0.2020092,0.09022064,0.046642497,0.994829,0.9905594,0.099316545,-0.094489865,0.10321024,-0.9939621,0.037241757,2.457032281112671,0.17472368383407588,-0.9623736297607426,0.0188397154970776,0.03712517251250243,-0.0048022567185025,0.103155404,0.23800276,-0.022093121,0.027832031
0.0,0.0,-0.14618532,0.09003012,0.047009185,0.994829,0.9901471,0.103345945,-0.094489865,0.10725346,-0.993534,0.03724176,1.9441078927040096,-0.5135382114887237,-0.33748699645996183,0.02846605638311226,0.0343718555924963,-0.006465680417209797,0.15726388,0.22370996,-0.031486068,0.027832031
-0.07514909,0.0,0.0,0.09003012,0.044937473,0.9949247,0.9901471,0.103542484,-0.094274454,0.10725346,-0.9936094,0.035172768,1.927348481082916,-0.7426466937065124,-0.33601213684082154,0.03796046850661128,0.030486762846001256,-0.008113412699327855,0.21067062,0.20313124,-0.04079695,0.027709961
-0.08634051,0.0,0.0,0.09003012,0.042556994,0.9950294,0.9901471,0.10376774,-0.09402646,0.10725346,-0.9936907,0.032795466,0.89065916223526,-1.2489126311779022,0.27350506744384795,0.04222396197525453,0.024089765875881738,-0.006705320298611976,0.23535076,0.16852392,-0.033218134,0.027709961
-0.15202351,0.063436724,0.0649862,0.08834604,0.038184866,0.9953577,0.9904976,0.10236975,-0.09184186,0.105401516,-0.9940133,0.028778061,0.23405565958023056,-0.981885186958313,-0.21327556152343874,0.043183120463279406,0.019059891111710765,-0.00773817150473611,0.24186501,0.14119606,-0.039154027,0.027832031
-0.28032517,0.0,0.23192495,0.088564776,0.029883418,0.9956221,0.9911373,0.096712396,-0.091068625,0.09901047,-0.9948637,0.021053266,-0.22773087120056157,-0.9548635610103606,0.10022037658691296,0.041828550504960205,0.014190273851100409,-0.007198378764277864,0.23555459,0.114736825,-0.036376923,0.027709961
-0.15015827,-0.058736324,0.22779477,0.09036685,0.025155287,0.99559087,0.9915819,0.090810254,-0.09229742,0.092731655,-0.9955505,0.016737297,-0.5993726670265198,-1.1728356145381928,0.6224567459106431,0.038622544417302805,0.008255144409153942,-0.004050103140903259,0.21887283,0.08209443,-0.019052688,0.027832031
0.11483866,0.0,0.23272434,0.090538196,0.027751409,0.9955063,0.9921484,0.084090225,-0.092576936,0.08628151,-0.9960717,0.019920144,-0.34962640209198004,-1.3533815403938292,0.22104244384765614,0.03668129968475639,0.0014469609851390274,-0.0029246404059604615,0.20914201,0.044427074,-0.012900628,0.027832031
0.19144663,0.0,0.17316997,0.090683684,0.03261873,0.9953455,0.99254096,0.07881294,-0.09301095,0.08148002,-0.9963556,0.025228383,-0.7149417700767517,-2.1159742125988004,0.21061543426513651,0.032923184335948846,-0.009140144882780669,-0.0018569400326049767,0.18924373,-0.014464786,-0.0070387726,0.027832031
0.0,0.0,0.09722816,0.090771236,0.032374293,0.9953455,0.9927497,0.07613856,-0.09301095,0.07879536,-0.9965716,0.025228387,-0.988721244430542,-1.3810018995285034,-0.5052508621215832,0.02781496219211639,-0.015999453656009282,-0.004373909643049868,0.16184631,-0.052732296,-0.021039255,0.027709961
-0.23902352,0.0,0.0,0.090771236,0.02575203,0.99553883,0.9927497,0.076755635,-0.09250238,0.07879535,-0.9967173,0.018598124,-1.074912504196167,-0.003011350822448744,-0.4209154525756844,0.022301324860174974,-0.01593451314184148,-0.006456617357713041,0.13192931,-0.052732296,-0.032754187,0.027832031
-0.23356102,0.0,0.0,0.090771236,0.019280009,0.9956852,0.9927497,0.077355325,-0.092001475,0.07879536,-0.9968172,0.012118594,-1.268842838668823,-0.41732597200870514,0.6359159652709963,0.015845604042529982,-0.017941470436175798,-0.0032447544445694944,0.09661484,-0.06434733,-0.015055354,0.027832031
0.0,0.0,-0.10062023,0.09071688,0.019534135,0.9956852,0.99252915,0.08013518,-0.092001475,0.0815866,-0.9965926,0.012118594,-1.3545123193740845,-0.7310118059396743,-0.07755612945556756,0.008993814425446908,-0.02150682211369329,-0.0036163113196244845,0.05891601,-0.08469287,-0.015055354,0.027832031
-0.057162866,0.0,-0.08636449,0.090671755,0.018174006,0.99571496,0.99233437,0.082655855,-0.09187254,0.083971396,-0.99641246,0.010540151,-0.9949488637924194,0.5773085688114166,-0.5925946350097657,0.003974101034357576,-0.01851274515906774,-0.006561202938075191,0.031346016,-0.06869567,-0.03147613,0.027709961
0.05035474,0.0,0.0,0.09067176,0.019569458,0.99568856,0.99233437,0.08252702,-0.091988295,0.083971396,-0.9963967,0.011936587,-0.9997373267173767,1.286961102747917,0.3557619461059556,-0.0010444561044010963,-0.011985375919532816,-0.004749587192855037,0.003521295,-0.03287693,-0.021574551,0.027832031
0.0,0.0,-0.15231395,0.09058799,0.019953659,0.99568856,0.9919756,0.08673299,-0.091988295,0.08819457,-0.9960318,0.011936587,-0.9630200563430786,0.7134527722120284,0.25999387969970655,-0.005854334105594484,-0.00835818517887501,-0.0034258698583922295,-0.023281509,-0.013020092,-0.014338394,0.027832031
0.0,0.0,-0.1960138,0.09047827,0.020445397,0.99568856,0.9914899,0.092119664,-0.091988295,0.093603246,-0.995538,0.011936585,-0.801555271434784,0.8835087906360626,-0.15899141082763713,-0.009832838792240431,-0.0038988502998003214,-0.004203697563238454,-0.045492575,0.011461902,-0.01874404,0.027709961
0.0,0.0,-0.21080247,0.0903546,0.020985188,0.99568856,0.9909223,0.098037206,-0.091988295,0.099544935,-0.9949615,0.011936586,-0.45081456413269044,1.3164656964302062,-0.4127767868041996,-0.01203774741894268,0.002702972433849711,-0.0062465630094432605,-0.058259785,0.048744623,-0.030434009,0.028320312
-0.0824768,0.0,-0.16350538,0.09026375,0.019118715,0.9957344,0.9904674,0.10273577,-0.09175887,0.10405187,-0.99452496,0.009663157,-0.2344642199516297,1.0997521032333373,0.2715252441406246,-0.013149879781606116,0.00818821808784715,-0.004857703973692921,-0.06475678,0.07921871,-0.022910055,0.027709961
0.0,0.0,-0.21932927,0.090145886,0.01966695,0.9957344,0.9898248,0.10875355,-0.09175887,0.11009428,-0.9938742,0.009663157,0.07551926918029783,1.355457023859024,0.1230847412109366,-0.012706534036796597,0.014924562116703035,-0.004217991747769773,-0.06475678,0.116778366,-0.019499382,0.027709961
0.20263804,0.0,-0.28794336,0.08996288,0.02600421,0.9956056,0.9889235,0.11616333,-0.09239313,0.11805548,-0.99288964,0.015265795,0.29993687047958373,0.8516919114589689,-0.17016514739990285,-0.011143317014214695,0.019108398863414366,-0.005047727526030438,-0.056408927,0.14048268,-0.024235424,0.027832031
0.19930726,0.0,-0.2526371,0.08975938,0.032131493,0.9954451,0.98808783,0.12257146,-0.09305239,0.12500308,-0.9919394,0.020746808,0.7879134093284605,0.8910321735382079,-0.3673437011718761,-0.007148033382501319,0.023468017736788336,-0.0068592073942596666,-0.034575876,0.16517314,-0.034414504,0.027709961
0.15307602,0.07729277,-0.20573968,0.08743062,0.036859144,0.9954885,0.9875717,0.12781185,-0.09146768,0.13060667,-0.9911133,0.025226388,1.3178403138160704,0.335681680393219,-0.267203987121583,-0.0005230916465084603,0.02502908605007049,-0.008160931292896283,0.0019414278,0.17447487,-0.041818716,0.027709961
0.0,0.0,-0.25730017,0.087164424,0.037484307,0.9954885,0.9866311,0.13488075,-0.09146768,0.13770087,-0.9901526,0.025226388,1.4927783228874207,0.35122793345451353,-0.05651424102783231,0.006943415426161186,0.026660080287092703,-0.008402697841570963,0.04348848,0.18425025,-0.041818716,0.027832031
0.0,0.0,-0.25863248,0.086892344,0.03811077,0.9954885,0.9856346,0.14197929,-0.09146768,0.14482468,-0.98913574,0.025226388,1.8425494987487792,0.34281965293884276,0.04883063201904214,0.016121445842774276,0.028240878150351454,-0.008116531192267898,0.09477037,0.19379161,-0.041818716,0.027832031
0.0,0.0,-0.27355438,0.08660096,0.038768336,0.9954885,0.9845301,0.1494465,-0.09146768,0.15231836,-0.9880095,0.025226388,1.8573178126335144,0.2263737380504608,-0.04933163604736457,0.02532742767672798,0.029231542449852002,-0.00832260671654338,0.14623657,0.20006442,-0.041818716,0.027709961
0.0,0.0,-0.12433539,0.08646688,0.039066475,0.9954885,0.9840094,0.15283765,-0.09146768,0.15572147,-0.98747885,0.025226388,1.8322687566757199,-0.26969392957687377,-0.09960987091064588,0.034362134321722936,0.027736915089718372,-0.008779043037513892,0.19700867,0.1925912,-0.041818716,0.027709961
0.0,-0.071260065,0.0,0.088441074,0.039066475,0.9953151,0.98382604,0.15283765,-0.0934191,0.1557712,-0.98747885,0.024917495,1.7295193884849547,-0.6216415736198425,-0.22962584686279364,0.04283792059253909,0.02449002264617057,-0.00988327705664029,0.24514471,0.17528966,-0.04820967,0.027832031
-0.07514909,0.0,0.0,0.088441074,0.036993768,0.9953943,0.98382604,0.15303186,-0.09310063,0.1557712,-0.9875286,0.022861136,1.1908240149497984,-0.8722883340358734,-0.23038592529296942,0.048577851064325384,0.02000613086276035,-0.010985790297821936,0.2781424,0.15111859,-0.054593656,0.027709961
-0.1570863,0.0,0.14892188,0.08858404,0.03229533,0.9955451,0.98445,0.14937449,-0.09244246,0.1516945,-0.9882532,0.018560952,0.9332719807624816,-0.7481746093749999,-0.049874276733399725,0.053001321712816164,0.01616522716157155,-0.011180232729999826,0.30400333,0.1303867,-0.054593656,0.027709961
-0.12391172,0.0,0.2372542,0.08878403,0.02827614,0.9956495,0.98541594,0.14318857,-0.09193797,0.1451653,-0.9892914,0.01515091,0.5746160081863403,-1.0711147681236266,0.03052531433105443,0.05560939514518379,0.010728827185145558,-0.010971704994694555,0.31999606,0.100575395,-0.054593656,0.027832031
-0.13830069,0.0,0.3226554,0.08901717,0.023645053,0.9957495,0.98666364,0.13468643,-0.09140316,0.13627519,-0.9906061,0.011340319,0.39281278886795046,-1.1296069310188293,0.07026734619140562,0.05729541211379762,0.005027148394125685,-0.010565509738764054,0.33092883,0.06913614,-0.054593656,0.027832031
-0.12644312,0.0,0.27136138,0.08917998,0.019467715,0.99582535,0.9876539,0.1275516,-0.09094172,0.12878956,-0.99164087,0.007852328,0.0009949056625365715,-1.6305939945697783,0.15812420043945252,0.05701390958154132,-0.0031509573206938346,-0.009722061187872971,0.33092883,0.023753399,-0.05019274,0.027832031
-0.0892716,0.0,0.26709798,0.08931251,0.01634369,0.99586964,0.98857176,0.12046278,-0.09063496,0.12144655,-0.9925833,0.005398091,-0.17505407667160033,-1.2342904525995253,-0.00031749420165994025,0.05585356965027561,-0.009306654797087992,-0.009675038352941905,0.3260781,-0.010448741,-0.05019274,0.027709961
0.0,0.0,0.25137672,0.089426115,0.0157102,0.99586964,0.9894008,0.11345238,-0.09063496,0.114407696,-0.99341923,0.0053980914,-0.8010313557624817,-0.6344469044685364,0.13136359710693313,0.051569145023211825,-0.012432356045445235,-0.008969845175642529,0.3034904,-0.028339028,-0.046488516,0.028198242
0.0,0.0,0.24857885,0.08953495,0.015077548,0.99586964,0.9901782,0.10645431,-0.09063496,0.10738119,-0.99420327,0.0053980914,-0.8882674849510193,-0.7265357125520706,-0.09847976226806665,0.04686996187334067,-0.01600287282797836,-0.009417394761104649,0.27822596,-0.049003433,-0.046488516,0.028442383
0.0,0.0,0.20541193,0.08962115,0.014556439,0.99586964,0.9907808,0.10069232,-0.09063496,0.10159576,-0.9948111,0.0053980914,-1.1404860909461976,-1.176431365442276,-0.09608556060791074,0.04093318160924298,-0.021805015291049848,-0.009850735590338678,0.24592704,-0.08232034,-0.046488516,0.028320312
0.07060589,0.0,0.15211943,0.08968732,0.016161501,0.99583894,0.99120486,0.09624158,-0.090831846,0.09730913,-0.9952268,0.007387724,-1.2943502635002135,-0.672298240327835,0.15081189575195175,0.0342567643836957,-0.025057481416233773,-0.009047422433627226,0.20927063,-0.10136004,-0.042217474,0.028320312
0.071138814,0.0,0.10122509,0.08973572,0.017895507,0.9958049,0.9914742,0.09324257,-0.09102108,0.094480306,-0.9954826,0.009375758,-1.5150814344406127,0.09395922794342038,-0.07870530700683709,0.02651007338957416,-0.024462397869435503,-0.009395711856493275,0.16673294,-0.10136004,-0.042217474,0.028076172
0.0,0.0,0.07950841,0.0897751,0.01769689,0.9958049,0.9916781,0.09104833,-0.09102108,0.09227719,-0.9956893,0.009375758,-1.2042132908821106,0.7638482139110565,0.17747427062988308,0.020356456568215737,-0.020520844810533043,-0.008461361944061392,0.13321723,-0.08010059,-0.037278004,0.027832031
0.07486929,0.0,0.0,0.08977509,0.019817375,0.99576485,0.9916781,0.090854295,-0.09121476,0.09227719,-0.99566704,0.011496018,-1.331105919265747,0.6980016974449157,0.25207885284423703,0.013599144689045922,-0.0169282320992558,-0.0071586608701199,0.0953574,-0.060247757,-0.03010828,0.028442383
0.10284785,0.0,-0.12833233,0.08969866,0.022988165,0.99570364,0.99134773,0.09413427,-0.091479525,0.09583282,-0.9952941,0.01434556,-1.3854387646675108,0.758541715478897,0.29336869812011734,0.006603955142263137,-0.013050882361365035,-0.005656024075168713,0.05679783,-0.039136,-0.021943234,0.027832031
0.055817224,0.056109007,-0.14125577,0.0880423,0.024892792,0.9958057,0.991111,0.097906694,-0.09007462,0.099738285,-0.99488425,0.016051602,-0.7949292775154114,1.7961001926660538,-0.571918478393556,0.0025962889789747636,-0.004005126986227941,-0.00848733634676065,0.034576293,0.011072367,-0.0379307,0.027954102
-0.1319056,0.099275924,0.0,0.08529037,0.021236375,0.9961298,0.9913556,0.09823169,-0.086975746,0.099698596,-0.994937,0.012674594,-0.16038354873657235,2.104140848970413,-0.23265852661132946,0.0017813897903970278,0.006535602893555265,-0.009608192298083493,0.030112494,0.069634885,-0.04440606,0.027832031
-0.122046486,0.0,-0.051591136,0.085262224,0.017975044,0.9961964,0.9912133,0.09994993,-0.08663915,0.10112714,-0.99483013,0.009295161,-0.1194118730545044,1.0891835532665253,0.2766665115356446,0.0011754234761725208,0.011948842645420114,-0.008176818778914853,0.026789019,0.09994908,-0.03670587,0.027832031
0.0,0.0,-0.20320828,0.0851592,0.018456973,0.9961964,0.9906322,0.10555434,-0.08663915,0.106751986,-0.99424225,0.009295161,0.6165970564842223,0.46445879585742944,-0.07767533416748051,0.004252531641212769,0.01421139241148016,-0.008524311355857682,0.043950167,0.11287591,-0.03670587,0.027832031
0.17012963,0.0,-0.28954214,0.08498954,0.02383578,0.99609673,0.98975503,0.113089375,-0.08715454,0.11472538,-0.9932989,0.01398018,1.1066429516792295,1.1693898842096329,-0.38317565765380834,0.009764483741402853,0.019987284870470926,-0.010397568087347434,0.0746152,0.14527966,-0.04732365,0.027709961
0.11697036,0.0,-0.28807658,0.08478367,0.027741924,0.99601316,0.98882186,0.120703496,-0.08753344,0.122650646,-0.9923009,0.017198147,1.6257668214797971,1.03133435921669,-0.16689546813964817,0.017844495430094823,0.025044020242202022,-0.011180057587608937,0.11966514,0.1738579,-0.05194832,0.027709961
0.062878475,0.0,-0.28061563,0.084557615,0.030146264,0.9959625,0.9878496,0.12826924,-0.0877513,0.13039675,-0.99128115,0.018933844,1.6470905802726743,0.3522414142608642,0.03230964355468657,0.02599072585430772,0.026680007212295333,-0.010962609081897461,0.16550702,0.18366149,-0.05194832,0.027832031
0.0,0.0,-0.20041043,0.0843874,0.030619508,0.9959625,0.9871155,0.13380145,-0.0877513,0.13594815,-0.9905351,0.018933844,2.0126433535575865,0.20165195755958554,-0.3699162353515639,0.03592398899282411,0.027554866964031786,-0.012757377213245793,0.22176866,0.1892985,-0.062288996,0.027954102
-0.08980452,0.0,-0.18095867,0.08423839,0.028554685,0.99603647,0.98642856,0.13899021,-0.08741038,0.14093533,-0.98988205,0.016458856,2.0667463015556335,-0.09695453395843506,-0.1862731948852545,0.04607810055563816,0.026932319959419453,-0.013624956301605836,0.2792904,0.1892985,-0.06747336,0.027832031
-0.10312764,0.0,-0.13752529,0.084133945,0.026017915,0.9961148,0.98588884,0.14301518,-0.08700567,0.14472327,-0.9893785,0.013618352,1.9097316017150878,-0.04387107179164887,0.04281866912841714,0.05539636806143541,0.02657830300066411,-0.01334273817445572,0.3324421,0.1892985,-0.06747336,0.027832031
0.0,0.0,0.0,0.084133945,0.026017915,0.9961148,0.98588884,0.14301518,-0.08700567,0.14472327,-0.9893785,0.013618352,1.7158012672424316,-0.7022765283346175,0.18647076873779156,0.06369839255734039,0.0229340288439877,-0.012343670639894484,0.37998688,0.16983844,-0.062306263,0.027709961
0.0,0.0,0.05605971,0.08417444,0.025886614,0.9961148,0.9861108,0.14147677,-0.08700567,0.1431794,-0.9896031,0.013618352,1.2724852186203002,-0.9140999868631362,-0.021824775695801435,0.06974232668765519,0.018248858765452083,-0.01239107616517402,0.41540274,0.14439718,-0.062306263,0.027832031
0.05968093,0.0,0.13160183,0.08427172,0.027232682,0.9960707,0.986622,0.13771921,-0.08723754,0.13955382,-0.9900969,0.01526254,0.7376443628311156,-1.0012425104141234,0.21562462005615224,0.0730818368683725,0.013151401919554204,-0.011250997684067388,0.43593287,0.116530575,-0.05630499,0.027832031
0.16480038,0.0,0.16624194,0.08440738,0.031410895,0.9959361,0.9872478,0.13275121,-0.087857835,0.13497145,-0.9906516,0.019805167,0.5376232635498046,-1.019805611371994,0.006227102661132022,0.07540454400177966,0.007986616853096462,-0.011163607182341391,0.45089602,0.08814731,-0.05630499,0.027832031
0.15947112,0.0,0.24977794,0.08463908,0.035243414,0.9957882,0.9881455,0.12549357,-0.08843094,0.12808166,-0.9914683,0.024203967,0.29358456974029545,-0.9488587851524353,-0.061785678100585883,0.07649544413047224,0.003202389843068803,-0.011416717536932613,0.45906708,0.061738644,-0.05630499,0.027832031
0.17412657,0.0,0.26709798,0.08491667,0.039438713,0.99560726,0.9890495,0.117714316,-0.08902028,0.12070811,-0.9922641,0.029010938,-0.046662728404998854,-1.0633539844989777,0.02135477294921806,0.07587965326779489,-0.0021303920286414296,-0.01125286008450186,0.45906708,0.032143343,-0.05630499,0.027832031
0.1525431,0.0,0.24071822,0.08519316,0.04309549,0.9954321,0.9898146,0.110706344,-0.08950517,0.114057966,-0.99291843,0.033225134,-0.4084472318649292,-0.938047612285614,-0.10146238555908305,0.07345801884213127,-0.0068099781299262915,-0.011703907711874765,0.44769916,0.006035573,-0.059128895,0.027832031
0.10577894,0.0,0.1942205,0.08543279,0.045564756,0.99530154,0.9903979,0.10509025,-0.08982284,0.10868929,-0.99341834,0.036149092,-0.5807360506057739,-0.1764544435977936,-0.10739186248779298,0.07018704849489174,-0.007658200457265628,-0.012182347485754356,0.4315361,0.0011244873,-0.06211783,0.027832031
0.06447725,0.0,0.19954975,0.08568949,0.0468756,0.9952186,0.9909658,0.099426724,-0.09000635,0.10317048,-0.9939402,0.0379323,-0.8321973773002624,-0.011867640781402622,0.03705655517578066,0.06567512636591598,-0.007679247658886312,-0.011936152972446682,0.40837437,0.0011244873,-0.06211783,0.027832031
0.13069318,0.0,0.15984684,0.08590524,0.05011367,0.9950422,0.99139756,0.09468902,-0.0903594,0.09874786,-0.99424475,0.041548297,-0.817509107875824,-0.14111542983055114,0.08902851562499947,0.061259205194707275,-0.008346428569744636,-0.011431329629459452,0.38562143,-0.0028030418,-0.06211783,0.027832031
0.1909137,0.0,0.0,0.08590524,0.055400137,0.9947619,0.99139756,0.094207555,-0.09086125,0.09874786,-0.99401,0.046830647,-1.1766393568992615,0.5263949020385741,0.015105331420897983,0.05506971238423743,-0.005672721916703042,-0.011298646324207665,0.35287318,0.011847598,-0.06211783,0.027832031
0.05341906,0.0,0.0,0.08590524,0.05687256,0.9946788,0.99139756,0.09407295,-0.0910006,0.09874786,-0.9939396,0.04830197,-1.2843784316062927,0.7229493470191954,-0.1995755462646489,0.04837247166428479,-0.002029611572023549,-0.012240030823909872,0.3172831,0.031880494,-0.06764806,0.027709961
0.0,0.0,-0.05092498,0.08582242,0.056997463,0.9946788,0.9912597,0.09551498,-0.0910006,0.10019358,-0.99379486,0.04830197,-1.4990615146636963,1.2388978389739989,-0.1492973114013676,0.04063530173264488,0.004175025680706563,-0.01292531722679716,0.27446324,0.06726893,-0.071912654,0.028564453
-0.088072516,0.07609369,0.0,0.083724745,0.054569572,0.9949937,0.9914491,0.09573423,-0.0886769,0.10009407,-0.99391,0.046087638,-1.0934573201179505,0.6325306026458739,-0.08049440917968731,0.034964838623391906,0.0073168035655324,-0.013263162686561612,0.24416357,0.08479633,-0.071912654,0.027709961
-0.17893623,0.0,-0.07184228,0.08362085,0.049801975,0.99525243,0.9912561,0.098146275,-0.08819623,0.10207272,-0.9939251,0.041159444,-1.487503229522705,-0.15967097239494327,0.2809408752441396,0.027352498282661425,0.006481864685730021,-0.011792142496908105,0.20294492,0.08037186,-0.064127795,0.027709961
-0.122979105,0.0,-0.16110721,0.08340434,0.046769626,0.9954177,0.99080545,0.102891326,-0.08785219,0.106528714,-0.9935925,0.03775802,-1.3513494033813476,-0.10901254696846008,-0.04625746459960922,0.02045898877434138,0.0059043926274590704,-0.011964469107421612,0.16533412,0.07733782,-0.064127795,0.027832031
-0.13217206,0.052511763,-0.18841963,0.0817125,0.043540247,0.9957045,0.99037844,0.10840595,-0.08601577,0.111685485,-0.9931528,0.034263205,-0.995131097984314,-0.30785380206108093,0.2742065017700188,0.015381038340548103,0.00433560165401637,-0.01053361425303441,0.1376376,0.06876962,-0.056496073,0.027832031
0.0,0.0,-0.24704136,0.08141253,0.04409859,0.9957045,0.9896131,0.11518305,-0.08601577,0.1184815,-0.992365,0.034263205,-0.5397473050117493,-1.270894592618942,0.3196963333129883,0.012605396623786616,-0.002040549317348422,-0.008882464515204297,0.12268122,0.03355318,-0.0476373,0.027709961
0.0,0.0,-0.3802726,0.080941245,0.044957772,0.9957045,0.98833865,0.12565042,-0.08601577,0.12897782,-0.9910554,0.034263205,0.283594012928009,-1.2863253479480743,-0.13520198211669943,0.013960339705307728,-0.008461973310502052,-0.009514062103211773,0.13057423,-0.0022478679,-0.051400244,0.027832031
0.0,0.0,-0.43596327,0.08039223,0.045932304,0.9957045,0.98674864,0.1375809,-0.08601577,0.14094087,-0.989425,0.034263205,0.9041744399070739,-1.228643216705322,-0.13520198211669943,0.018411410206316557,-0.01456287952747615,-0.01014250170327921,0.15562886,-0.036293525,-0.055146687,0.027709961
0.0,0.0,-0.41890967,0.07985123,0.046866484,0.9957045,0.9850775,0.14907616,-0.08601577,0.1524671,-0.9877145,0.034263205,1.3570837414741517,-1.0508636318683624,0.21435146026611207,0.025104771862655736,-0.019744383289180583,-0.009020031893432255,0.19339925,-0.06554119,-0.04918085,0.027832031
0.0,0.0,-0.29593724,0.079462506,0.047522593,0.9957045,0.9838162,0.15718473,-0.08601577,0.16059728,-0.9864252,0.034263205,1.8420500027656552,-0.5687451544284821,0.03718053741454952,0.034189498017170736,-0.022489387144877093,-0.008789029046892346,0.24466725,-0.081370525,-0.04918085,0.027832031
0.06660895,0.0,-0.20227566,0.07918974,0.04980496,0.99561465,0.98292017,0.16253757,-0.08631083,0.16612354,-0.98544466,0.03608299,2.03141634311676,-0.11660398254394533,-0.06490801239013777,0.04417563224266868,-0.022959960121872434,-0.009069623963608574,0.3009577,-0.08460162,-0.04918085,0.027709961
0.06900711,0.0,-0.10101993,0.07904671,0.051939506,0.99551696,0.98245955,0.16513443,-0.0866255,0.16889346,-0.98490256,0.03797513,2.2410849401474,0.19809256043434142,-0.16931446990966847,0.05516017878219234,-0.021854697519091363,-0.009870848193338872,0.36333165,-0.0790883,-0.053893216,0.027832031
0.0,0.0,0.0,0.07904671,0.051939506,0.99551696,0.98245955,0.16513443,-0.0866255,0.16889346,-0.98490256,0.03797513,2.1141922521591185,1.06718776307106,-0.4781664840698241,0.06545533914907697,-0.016409485216140607,-0.012212326372721299,0.42217392,-0.049386296,-0.06720156,0.027832031
-0.23116286,0.0,0.12240887,0.07921365,0.045205366,0.9958322,0.9830222,0.1623157,-0.085562885,0.16550714,-0.9857028,0.03158026,2.1101954604148863,1.2228152795314788,-0.8546889053344735,0.07567903975540602,-0.010213361392402509,-0.01642470926753006,0.48142013,-0.015054325,-0.09119795,0.028076172
-0.38038188,0.0,0.26709798,0.07951275,0.033874616,0.9962582,0.9842254,0.1557875,-0.08384942,0.15804496,-0.98720956,0.020953165,1.6093301209449766,1.0107676641464232,-0.2003728042602546,0.08334729516135388,-0.005108456264708381,-0.017344449742493682,0.52699685,0.013570932,-0.096872576,0.028320312
-0.3020419,0.0,0.31559417,0.079774246,0.024639443,0.99650836,0.9855817,0.14769608,-0.08255138,0.14921446,-0.98872584,0.012501846,1.266843116378784,0.8695821160554886,0.05101121978759693,0.08926477426744103,-0.0007350034031073961,-0.017002671394843228,0.56287426,0.03819777,-0.096872576,0.028320312
0.0,0.0,0.27562478,0.079964146,0.024015991,0.99650836,0.9867045,0.13999835,-0.08255138,0.14149214,-0.9898605,0.012501846,0.8364580111503601,1.234697505879402,0.15635609283447138,0.09300074045185562,0.005442159143305152,-0.016135877573696656,0.586563,0.07316479,-0.092444524,0.028320312
0.16213575,0.05517639,0.36129248,0.078682914,0.027747745,0.9965135,0.9881992,0.12960789,-0.0816353,0.13142127,-0.991177,0.017222377,-0.008366347503662164,1.7255969613075255,0.01983700714111336,0.09249390501207802,0.014042933154126254,-0.015956013150122607,0.586563,0.12161295,-0.092444524,0.028076172
0.19011432,0.0,0.4684104,0.07907234,0.031992044,0.9963554,0.98980206,0.11628014,-0.08228586,0.11848891,-0.9927011,0.022471251,-0.8117682245254516,1.0910896018505096,0.06205668487548799,0.08797259436439037,0.01942816649760817,-0.015565949659994553,0.56396985,0.15198019,-0.092444524,0.027832031
0.16226898,0.0,0.45295557,0.07949773,0.035492152,0.996203,0.991187,0.103419974,-0.08278199,0.10596547,-0.99400437,0.026957706,-1.4503154170989991,0.6720220591545105,-0.09210348663330059,0.08028115430707342,0.022691135960892683,-0.015948637344861082,0.52360463,0.17068394,-0.092444524,0.027832031
0.0,0.0,0.3852741,0.07987212,0.03464142,0.996203,0.9922346,0.09283224,-0.08278199,0.09534751,-0.995079,0.026957706,-1.757973128414154,-0.4307204529285431,-0.0250658401489261,0.07108988289346728,0.020424078016445503,-0.015994223358881406,0.47489128,0.15874869,-0.092444524,0.027709961
0.0,0.0,0.33371362,0.080189034,0.033901345,0.996203,0.9930506,0.083652884,-0.08278199,0.08614175,-0.99591815,0.026957706,-2.0698675424575805,-0.16504194898605348,0.0228181930541993,0.060385095766712034,0.019496747881433008,-0.015800161276816004,0.41753533,0.15417539,-0.092444524,0.027709961
-0.1851981,0.0,0.3087994,0.08045431,0.028101148,0.9963621,0.99373186,0.075576186,-0.08237341,0.07761611,-0.99674404,0.021844575,-1.8186288345336914,-0.18836863007545473,0.0715686416625978,0.050990026115210016,0.018457420991648568,-0.015363317262118936,0.3671412,0.1489557,-0.092444524,0.027709961
-0.101129174,0.0,0.20367992,0.08060745,0.024768585,0.99643815,0.9941537,0.07005471,-0.08216397,0.071840346,-0.99723566,0.018976849,-1.1640877282142639,-1.0757494086027144,0.4395461364746094,0.044914637343562644,0.012986386843676753,-0.013088769993435294,0.33403176,0.11835883,-0.079942785,0.028442383
0.17106225,0.0,0.0,0.08060745,0.02953316,0.9963083,0.9941537,0.06966101,-0.08249802,0.071840346,-0.9971335,0.023745304,-1.2790094079017638,-1.0400865456104278,0.24925645599365254,0.03829501711733601,0.00772102218140623,-0.011777043863499854,0.2982782,0.089284144,-0.07297505,0.027954102
0.18158752,0.0,-0.18269068,0.08044344,0.034977555,0.9961453,0.9937877,0.074297205,-0.0828618,0.07690919,-0.99662256,0.02878354,-0.7722584009170532,-1.0468630137920378,0.025766479492187244,0.034242250027164065,0.002448102001539009,-0.011589326246721418,0.2767847,0.060147822,-0.07297505,0.027832031
0.16133636,0.0,-0.34296787,0.08008455,0.04021649,0.9959765,0.9930349,0.08340718,-0.08321588,0.08641832,-0.99570376,0.033256754,-0.5198159817695618,-0.9247743570804595,0.07287660369872917,0.03147195886818044,-0.0021880102938709838,-0.011166996596994166,0.26231715,0.034409475,-0.07297505,0.027832031
0.12789533,0.0,-0.37187904,0.07964769,0.044569068,0.99582624,0.99212426,0.0933403,-0.083529085,0.09667361,-0.99463624,0.036783718,-0.008051447010040347,-0.9665591502189635,-0.2369276565551761,0.031274341838789334,-0.007009865993496447,-0.012295799896785076,0.26231715,0.007626158,-0.079540305,0.027709961
0.0,0.0,-0.38253754,0.07917078,0.045410838,0.99582624,0.9910791,0.103851676,-0.083529085,0.10721142,-0.9935556,0.036783718,0.4250890617370604,-1.0584372272491454,-0.04778572540283221,0.03324341543828069,-0.01226700279977469,-0.012473249524315312,0.27409634,-0.021703096,-0.079540305,0.027709961
-0.081677414,0.0,-0.33230937,0.07875964,0.04388399,0.9959273,0.9900799,0.11316219,-0.0832835,0.116356194,-0.99260694,0.03453605,0.9581545289993285,-0.4811420714855194,-0.02481359558105467,0.03786797100608593,-0.014611378143203412,-0.012534951254599008,0.30064675,-0.035035525,-0.079540305,0.027709961
-0.110588595,0.0,-0.23878103,0.07847765,0.04135202,0.99605787,0.9893086,0.119965374,-0.082926296,0.1229217,-0.99191654,0.03149532,1.4253367748260497,-0.6076698231220246,0.06251873779296879,0.04480531502518575,-0.017576670368097517,-0.01215968280936117,0.3401428,-0.05187403,-0.079540305,0.027709961
-0.14962535,0.0,-0.22252682,0.07823289,0.037688952,0.9962225,0.98854566,0.12643455,-0.08241325,0.12906304,-0.9912587,0.027365915,1.7102022454261778,-0.31393052530288695,0.025025474548339588,0.05313229967719071,-0.019058439642771464,-0.011973757022572666,0.38774118,-0.060611356,-0.079540305,0.027832031
-0.085940816,0.0,-0.17456357,0.078054644,0.035685617,0.99631023,0.9879192,0.13143262,-0.08210485,0.13387768,-0.9906826,0.02499559,2.109350910758972,-0.32342891054153444,0.15346931610107362,0.06341339273259962,-0.020580291997265278,-0.011146541656954435,0.4464487,-0.06961304,-0.07526894,0.027832031
-0.06169273,-0.062200334,-0.14618532,0.079637,0.03429577,0.9962338,0.98723257,0.13559298,-0.08358526,0.13794899,-0.9901709,0.023059694,2.022334200000763,-0.09221400012969971,-0.2336570236206068,0.07320799676894044,-0.02093846053792745,-0.012259094066772697,0.50273436,-0.06961304,-0.08177209,0.027832031
0.0,0.0,0.0,0.079637,0.03429577,0.9962338,0.98723257,0.13559298,-0.08358526,0.13794899,-0.9901709,0.023059694,1.9696617634773252,0.5254900281906127,-0.10676433563232557,0.08269026560248237,-0.01820631809428475,-0.012731620274600461,0.5573136,-0.055051733,-0.08473053,0.027709961
0.0,0.0,0.10908574,0.0797403,0.03405489,0.9962338,0.98763794,0.13260819,-0.08358526,0.1349553,-0.99058336,0.023059694,1.6023572073936463,0.28119970879554745,-0.1115527389526374,0.09028860031143818,-0.01670928795983559,-0.013225725867990645,0.60171485,-0.0472597,-0.08782165,0.027709961
-0.09486731,0.0,0.2091424,0.0799311,0.030932475,0.99632037,0.9884002,0.12702873,-0.08323949,0.12913617,-0.99141663,0.020420127,1.7753022778511047,0.5553835135936737,-0.34941030731201295,0.0987136686991365,-0.013848823952068044,-0.014906648775210756,0.6515585,-0.031666655,-0.09763175,0.028076172
-0.13803424,0.0,0.2531087,0.08013682,0.0264637,0.99643254,0.98928654,0.120264925,-0.082756124,0.12202598,-0.9923891,0.016542543,1.2011131407737732,0.6653214839458466,-0.010510369873047765,0.1042256660595097,-0.010452972412578471,-0.014884667380699941,0.6855744,-0.012824543,-0.09763175,0.028320312
0.0,0.0,0.29467687,0.08035488,0.02579401,0.99643254,0.9902558,0.1120048,-0.082756124,0.11373991,-0.99337286,0.016542543,0.8734083998680113,0.8273736084461212,0.2887648376464842,0.1080715797285522,-0.006263839508284972,-0.01336641985556402,0.7103096,0.010606936,-0.08945384,0.028320312
0.21596117,0.0,0.34716997,0.08063456,0.031096505,0.99625856,0.99130654,0.10175498,-0.08340982,0.103968106,-0.9943234,0.022621209,0.43976715021133406,1.037437553834915,0.1874850036621094,0.10973005758096611,-0.0010453325415689715,-0.012362162737975652,0.72276396,0.039987493,-0.084144205,0.028320312
0.32294583,0.0,0.401928,0.08103323,0.039251767,0.99593824,0.9923919,0.08974952,-0.08428185,0.09269327,-0.9951906,0.031680446,-0.08120768222808838,1.0836453988552093,-0.14702278442382877,0.10877536888192084,0.00437812111541492,-0.013035465846404918,0.72276396,0.07054439,-0.08828999,0.028198242
0.23714495,0.0,0.3835421,0.0814827,0.044957083,0.9956603,0.9932904,0.078592636,-0.08483742,0.08206569,-0.99589264,0.038251504,-0.3919803941726685,0.9857786436557769,-0.2640644866943358,0.10627159006664788,0.00928512372811673,-0.014290610950644572,0.71185434,0.09798061,-0.095639445,0.027832031
0.12749563,0.0,0.33557886,0.081915535,0.047726866,0.99549586,0.99397975,0.069010496,-0.08509931,0.07276126,-0.99647367,0.04178651,-0.8677933398246765,0.6958265011787415,-0.2481209457397462,0.10140126541719126,0.012717830615369852,-0.01545976262459008,0.6877019,0.117346875,-0.10254516,0.027832031
0.0,0.0,0.3238545,0.08234054,0.046989836,0.99549586,0.99455905,0.060087748,-0.08509931,0.06381598,-0.9970865,0.04178651,-1.3291659140586853,0.40362678222656245,-0.2002369125366208,0.09424842951981187,0.014672375373425816,-0.016383648374150232,0.65087074,0.12853135,-0.108093716,0.027709961
0.0,0.058507167,0.34650382,0.081168726,0.04620138,0.995629,0.99522954,0.050492853,-0.08347921,0.05412908,-0.9976553,0.04188254,-1.3945309441566467,0.11670914206504823,0.011569111633299656,0.08680453265142958,0.015182559206883928,-0.01624388457411298,0.6120581,0.13177961,-0.108093716,0.027832031
-0.065289974,0.06476904,0.26403368,0.07971088,0.04381134,0.9958548,0.9957209,0.04335882,-0.08160765,0.046754505,-0.99809843,0.0401677,-1.1267502187728882,-0.18356363167762757,-0.01454060668945445,0.080736758894308,0.01418882825246137,-0.016235368184689687,0.5808359,0.12669307,-0.108093716,0.027709961
-0.10099594,0.0,0.10002602,0.07982864,0.040789817,0.9959737,0.9958381,0.04081586,-0.08148934,0.043975536,-0.99833375,0.037361786,-1.0057764554023743,-0.6812813071250916,0.42485095062255773,0.07530419282282458,0.010711477575573605,-0.014029936590653451,0.5528431,0.107731625,-0.09626925,0.027832031
0.0,0.0,-0.06224964,0.07975661,0.040930487,0.9959737,0.9957646,0.04257139,-0.08148934,0.045735464,-0.9982547,0.03736179,-0.8231255961418151,-1.03218521194458,0.12557574310302755,0.07081204387800137,0.005496994127972837,-0.013331908192185046,0.5295319,0.07849982,-0.09271291,0.028320312
0.08126439,0.0,-0.21280093,0.07950612,0.043654684,0.99587804,0.9954956,0.048283827,-0.08159209,0.051646758,-0.99787927,0.039619192,-0.9308541827201843,-0.4071146731376648,0.09776371154785046,0.06580371274501044,0.003433935791644649,-0.012776430093484867,0.5036243,0.06716899,-0.09271291,0.027832031
0.12576362,0.0,-0.27075654,0.079163335,0.04772024,0.99571884,0.9951064,0.055466693,-0.08177287,0.05913153,-0.9973196,0.04309579,-1.2052908624649048,-0.46529767603874206,0.13759967803954964,0.05944823986896086,0.001090277732492715,-0.012024549552819695,0.47022575,0.05427561,-0.08890003,0.027709961
0.113373116,0.0,-0.33350843,0.07870239,0.051594652,0.99556214,0.9945499,0.06444279,-0.08196206,0.06838569,-0.9965868,0.046241656,-0.8920137398719787,-0.7826137309074401,0.15825723571777317,0.054690929970256166,-0.0028282423107069497,-0.01117314062646673,0.4453992,0.03249388,-0.08449541,0.027832031
0.08126439,0.0,-0.37267843,0.078153804,0.05464636,0.9954425,0.9938323,0.07452525,-0.082118526,0.07867316,-0.9957208,0.04848489,-0.5491648777961731,-1.0752723712921142,-0.16620596618652428,0.05167165093142402,-0.008190462955613986,-0.011948304754267019,0.43018186,0.0026981228,-0.08910097,0.027709961
0.07100558,0.0,-0.3981256,0.07753538,0.05746372,0.99533224,0.99295056,0.085323006,-0.082275786,0.08965269,-0.99469495,0.050443087,-0.4618251603126526,-0.7479772060394287,-0.22021402587890648,0.049104166875203636,-0.011889396671033059,-0.012989633359890215,0.4173847,-0.018028297,-0.095203094,0.027709961
0.0,0.0,-0.425438,0.07684953,0.058377773,0.99533224,0.99187064,0.09707436,-0.082275786,0.10142439,-0.99356365,0.050443087,0.2989325897216797,-0.6346478575706482,-0.04783150634765754,0.05035330898943602,-0.015003188975531134,-0.013163842724829051,0.42570463,-0.035691835,-0.095203094,0.027832031
-0.06275858,0.0,-0.42090812,0.076173514,0.057539117,0.99543303,0.99067014,0.10877922,-0.082096785,0.11300628,-0.99239933,0.048716195,0.6310337692260741,-0.7223647669792175,0.06612314758300641,0.05325671129061921,-0.018539996865549566,-0.012767407773289873,0.44319054,-0.055708535,-0.095203094,0.027709961
-0.075815246,0.0,-0.40718532,0.075531244,0.056303557,0.9955526,0.98937863,0.120122336,-0.081856325,0.12419698,-0.99116117,0.046632554,1.053790660572052,-0.5596686784744263,0.10807055358886686,0.05825938103702637,-0.02124564027359395,-0.01216321796647909,0.47239104,-0.07121693,-0.09220846,0.027709961
-0.084874965,0.0,-0.35575807,0.0749817,0.054696772,0.9956837,0.9881398,0.13010578,-0.08156077,0.1340054,-0.9899903,0.044292517,1.8156340518951413,-0.48199428968429564,-0.16852148742675865,0.06704625439131694,-0.023549383520647456,-0.012945009313780488,0.5229238,-0.084631816,-0.09689876,0.027832031
0.0,0.0,-0.31978562,0.07449407,0.055359054,0.9956837,0.98694813,0.13885683,-0.08156077,0.14277269,-0.988764,0.044292517,2.0525527829170227,-0.6200332892417908,-0.07754182434082146,0.07697378703394546,-0.02653180304925317,-0.013267993388915692,0.5798,-0.101812914,-0.09689876,0.027709961
0.0,0.0,-0.28194794,0.07405736,0.055941917,0.9956837,0.9858281,0.14659731,-0.08156077,0.15052731,-0.9876132,0.044292517,2.0519567914962766,-0.5083129131317139,-0.2906257720947263,0.08684870205625711,-0.028940708599665473,-0.014654782282444745,0.63691014,-0.11596029,-0.104987465,0.027832031
-0.16667895,-0.07072714,-0.19721287,0.075721964,0.051733688,0.9957861,0.9848458,0.15238701,-0.082806915,0.15602884,-0.986966,0.039410673,2.0958316489219664,0.2431640544891357,-0.0737357055664063,0.09689361679058565,-0.027580184784221466,-0.014950186898864553,0.6952414,-0.10919254,-0.104987465,0.027832031
-0.18240024,-0.061400946,-0.06757888,0.0773311,0.046822105,0.99590546,0.98441476,0.15466164,-0.08371019,0.15794793,-0.9868574,0.034132224,1.912789737319946,0.4387558249473571,-0.2376877349853519,0.10597309739323246,-0.025248504735563573,-0.01606387463929699,0.74847823,-0.09698108,-0.1116028,0.027832031
-0.24168815,-0.055672005,0.09616231,0.078990445,0.039913118,0.99607605,0.98469585,0.1525913,-0.08420234,0.15535338,-0.987483,0.02724903,1.4970283611297606,0.3973431598186492,-0.028635447692872518,0.1129283737119151,-0.02313554641279251,-0.016126732504564867,0.79014355,-0.08592221,-0.1116028,0.027832031
-0.24475245,-0.052740917,0.23112556,0.08067864,0.03264575,0.99620545,0.9855314,0.14685453,-0.08462661,0.14906007,-0.98861927,0.020325394,1.545465124225616,0.7256837585926055,-0.22859682312011742,0.1200910574644836,-0.01939144988776552,-0.01718908295764263,0.83296835,-0.06581354,-0.11793721,0.027709961
-0.066489056,0.0,0.36115924,0.080992125,0.030001234,0.99626315,0.9869525,0.13713993,-0.08436498,0.1391586,-0.9900973,0.018502545,1.3820441744804381,0.954578306055069,-0.257881327819824,0.12640082304956338,-0.014521601108051344,-0.018392544181953536,0.87126476,-0.039362215,-0.12508309,0.027709961
0.0,0.07489461,0.37048542,0.07922811,0.02917879,0.9964294,0.98848134,0.12699962,-0.08231509,0.1289481,-0.99147356,0.018780757,1.051819507408142,1.448496712732315,-0.08470010375976678,0.13102791647135625,-0.007206509538849512,-0.018724081979842603,0.90041065,0.00077557284,-0.12508309,0.027709961
0.087925956,0.0,0.36662173,0.079534166,0.030807175,0.996356,0.98972476,0.116704896,-0.08261329,0.1188248,-0.9926888,0.021208603,0.37132228622436525,1.0689455502033234,0.13148281097411996,0.1322293883201213,-0.0018257492401386475,-0.01797304751507279,0.9107453,0.030526498,-0.121423654,0.027832031
0.17759058,0.05890686,0.37807962,0.0782519,0.0348838,0.99632317,0.991025,0.10592488,-0.081544444,0.10838009,-0.99376214,0.0262819,0.23040316963195795,0.919676609134674,-0.11241104583740302,0.1327202572266805,0.0027817625517354153,-0.01844523750668444,0.9171298,0.0560107,-0.12453856,0.027709961
0.23288155,0.0966113,0.39859724,0.07597136,0.040535346,0.9962858,0.9923638,0.09429972,-0.07950898,0.09717247,-0.99471825,0.033061735,-0.13317009439468386,0.7768362284183501,0.02920543365478423,0.13139080546857365,0.006652034881068488,-0.018206984150877095,0.91339093,0.077821285,-0.12453856,0.028076172
0.20570236,0.0,0.39100304,0.07644769,0.045494832,0.9960351,0.9933446,0.08284038,-0.08002497,0.08615274,-0.99552387,0.0388591,-0.6189773772239685,0.5113527003765106,0.20878343048095616,0.12763896455511095,0.009175538208545699,-0.017072032077717927,0.8958613,0.092302956,-0.11862575,0.028320312
0.09631952,0.0,0.34956813,0.07690981,0.04746102,0.9959078,0.9941181,0.072740376,-0.0802381,0.07625096,-0.99622107,0.04158742,-1.092677276325226,0.5283902753829955,-0.2999589126586919,0.12153738335070927,0.011771611894417949,-0.018486466480622795,0.864783,0.10733163,-0.1271573,0.028442383
-0.07115215,0.0,0.3089326,0.07732177,0.044721577,0.9960027,0.9947293,0.06401743,-0.08009734,0.06734368,-0.9969463,0.03953593,-1.2283131954193114,0.24104858946800223,-0.3750908767700203,0.11478813045685916,0.012917996782285869,-0.020269488532069783,0.82924706,0.11430533,-0.13800892,0.028930664
-0.17853653,0.06983182,0.25923735,0.07566666,0.039147083,0.9963644,0.99532765,0.057141136,-0.07783297,0.0599804,-0.99759835,0.034640502,-1.3776240017890928,0.009653817558288535,0.13619015197753903,0.1073260697956294,0.012901675886165882,-0.01948719032952174,0.7904005,0.11430533,-0.1341686,0.028198242
-0.057029635,0.054776695,0.17037211,0.07432855,0.037209827,0.99653935,0.995705,0.052542824,-0.07622819,0.055197507,-0.9979252,0.03314459,-1.2546448515892028,-0.6110003334522247,0.5008235855102541,0.10051621518870524,0.009782165839473929,-0.016885636450322865,0.7554812,0.09729995,-0.120229654,0.027832031
0.11497189,0.0,0.08350534,0.07441813,0.04021239,0.99641603,0.9958237,0.049995575,-0.07639153,0.052888352,-0.9979396,0.036323883,-1.0017194514274597,-0.8217843168258667,0.3559607940673821,0.0950050368556244,0.005624333426147225,-0.01502140429773434,0.7277236,0.07452834,-0.110365994,0.027709961
0.12229961,0.0,0.0,0.07441813,0.043603804,0.9962734,0.9958237,0.04973526,-0.076561265,0.052888352,-0.9978102,0.039720505,-0.8580673518180847,-0.5000001076221466,-0.1382694732666021,0.09023967491225586,0.0030962112209057557,-0.015637644642578677,0.70384187,0.060612317,-0.114214316,0.027832031
0.0,0.0,-0.09822207,0.07429865,0.04380708,0.9962734,0.995684,0.052457377,-0.076561265,0.055615887,-0.9976619,0.039720505,-0.6127118103027344,-0.1859169147491455,-0.29389258117675787,0.0867249174861809,0.002151145591055499,-0.017028919325249574,0.68678886,0.05543787,-0.12239394,0.027832031
0.0,0.0,-0.19894488,0.07405495,0.044217803,0.9962734,0.9953783,0.057969715,-0.076561265,0.06113913,-0.99733865,0.039720505,-0.0357638699531555,-0.19943668785095217,0.03411304626464862,0.08611247354898421,0.0011432064238454606,-0.016773209497300084,0.68678886,0.049887143,-0.12239394,0.027832031
0.0,0.0,-0.2169311,0.07378663,0.044664115,0.9962734,0.9950102,0.06397839,-0.076561265,0.06715958,-0.99695134,0.039720505,0.20144376707077016,-0.26357631983757024,0.402820101928711,0.08668913001659313,-0.00018039120746161778,-0.01467524294017003,0.69239545,0.04255128,-0.111182645,0.027832031
0.0,0.0,-0.24557582,0.07347964,0.045167394,0.9962734,0.9945497,0.07077766,-0.076561265,0.07397205,-0.996469,0.039720505,0.6999906623840331,-0.28995562767982486,-0.28670997619629013,0.08975563767843034,-0.001629267389823434,-0.01603541660645063,0.7118776,0.034481224,-0.119162366,0.027832031
0.0,0.0,-0.21932927,0.07320255,0.0456151,0.9962734,0.9940991,0.07684745,-0.076561265,0.08005349,-0.9959989,0.039720505,1.1383954006195067,-0.2032739363193512,0.055660861206053625,0.09499883649313573,-0.0026374907344710726,-0.01567693521738811,0.74356145,0.028823698,-0.119162366,0.027832031
0.0,0.0,-0.1836233,0.0729695,0.045986976,0.9962734,0.9936952,0.08190462,-0.076561265,0.08512029,-0.9955787,0.039720505,1.4877918420791625,-0.5875220502853393,-0.028136196899414045,0.10196280152106586,-0.005561913532225414,-0.01573923152579824,0.7847881,0.012543485,-0.119162366,0.027709961
0.0,0.0,-0.18682085,0.07273046,0.04636411,0.9962734,0.9932579,0.08704768,-0.076561265,0.09027306,-0.9951247,0.039720505,1.81569810628891,-0.82338008685112,-0.15263468322753937,0.11053147804490508,-0.009651004398819886,-0.016423708784306944,0.835101,-0.0102723455,-0.12339187,0.027709961
0.08352932,0.0,-0.16283922,0.07251239,0.049032457,0.9961615,0.9928498,0.09140805,-0.076770514,0.09482151,-0.99460566,0.042053662,1.8776466417312618,-0.5832398715496063,0.03997528686523388,0.11936705386333686,-0.012518948734573819,-0.01614171380605924,0.88781816,-0.026647488,-0.12339187,0.028076172
0.05221998,-0.0688619,-0.10022054,0.07432108,0.050721135,0.99594367,0.992433,0.09412202,-0.07885249,0.0977398,-0.9942678,0.04334209,1.388625426006317,-0.5419903625965118,-0.3074867477417005,0.12571334572405177,-0.015166305803883508,-0.017598438975737443,0.927314,-0.042062987,-0.13213752,0.028442383
0.0,-0.062466796,-0.1260674,0.07590131,0.050989304,0.9958108,0.9919496,0.09766442,-0.080607764,0.10136551,-0.9939124,0.043165974,1.1962843461990356,-0.9013008537769318,-0.0907325820922864,0.13106620072642666,-0.01959697854374875,-0.017964109691320188,0.96119314,-0.067588106,-0.13213752,0.028320312
0.055817224,0.0,-0.095690675,0.0757601,0.052776553,0.99572843,0.9916803,0.10023573,-0.08076485,0.10407014,-0.99356306,0.044743612,0.7786546441078186,-1.1123887726783752,0.3362259094238276,0.13430414294333362,-0.02506093751442188,-0.01619315959574445,0.98333997,-0.09922709,-0.122574456,0.028442383
0.08419548,0.0,-0.08103524,0.0756366,0.055313405,0.9956001,0.99144894,0.10230948,-0.08100529,0.10634007,-0.99321353,0.04710208,0.2938172434806823,-0.9164760817527771,-0.12941126708984463,0.13510170844602037,-0.029518013235613653,-0.01675925013321495,0.9916251,-0.12507011,-0.12622362,0.028198242
-0.06835429,0.0,0.0,0.0756366,0.053419236,0.9957035,0.99144894,0.1024634,-0.08081051,0.10634009,-0.99330145,0.04521247,0.06876228742599477,-0.5367675652503967,-0.3817952163696301,0.13477001134092023,-0.03205426099568757,-0.018584429964397024,0.9916251,-0.14000945,-0.13684976,0.027832031
-0.27166516,0.0,0.0,0.0756366,0.045889203,0.99607897,0.99144894,0.10307148,-0.08003347,0.10634009,-0.9936149,0.037700832,-0.5489417408943176,-0.4333544900894165,-0.13640313262939507,0.13135145257974407,-0.03406076214115621,-0.019173523477722013,0.9763469,-0.15207058,-0.14064613,0.027832031
-0.2811246,0.0,0.0,0.0756366,0.038094208,0.9964075,0.99144894,0.10369453,-0.079224564,0.10634009,-0.9938795,0.029925369,-0.532182329273224,-0.43753106307983397,0.40153264160156255,0.12803378367047924,-0.0360781136458496,-0.017069992652325592,0.9615352,-0.16424796,-0.12947066,0.027832031
-0.06981984,0.0,0.0,0.07563661,0.036166385,0.9964794,0.99144894,0.10384761,-0.0790238,0.10634009,-0.9939355,0.028002448,-0.8625822179794311,-0.28494864711761475,0.32901708526611273,0.12308070366222969,-0.03732246631320842,-0.0153395572627334,0.9376331,-0.17214388,-0.12035361,0.027709961
0.11710359,0.0,0.0,0.07563661,0.039399706,0.9963568,0.99144894,0.10359064,-0.079360366,0.10634007,-0.9938393,0.031227555,-0.8913126379013061,-0.22500893726348878,0.14105198822021414,0.11800873695441201,-0.03826089866795983,-0.014557599535318662,0.91293484,-0.17837887,-0.116445065,0.027709961
0.1849183,0.07169706,0.0,0.07365718,0.044504985,0.99629015,0.99160516,0.10318767,-0.07792024,0.10627278,-0.9936658,0.036530867,-0.8244259882926941,0.24312786769866934,-0.18631372375488375,0.11329656332817649,-0.03685395483612668,-0.015416380156416488,0.89009005,-0.1716418,-0.12160781,0.027709961
0.1341572,0.075693995,0.0,0.07152146,0.04829024,0.99626946,0.9917703,0.10289492,-0.07618587,0.10619016,-0.9935193,0.04053364,-0.7560390897750855,0.9537802775382995,-0.09513569641113406,0.10894988506266018,-0.03190078367425456,-0.015814976737690077,0.8686788,-0.14463045,-0.12160781,0.028320312
0.13255842,0.0,-0.14964934,0.0713111,0.05228041,0.99608314,0.9913318,0.10675988,-0.07657431,0.11034512,-0.9929094,0.044214074,-0.538541475391388,0.7047848316192626,0.22986966705322232,0.10571242826038994,-0.028217355597786972,-0.014586553518735515,0.85362434,-0.12492882,-0.11518201,0.027954102
0.061279703,0.0,-0.19881165,0.07101735,0.054363806,0.9959926,0.990729,0.11208939,-0.07676012,0.11581324,-0.9922099,0.04589951,-0.6937387104034424,0.7925232697486877,-0.08529520111084032,0.10171517256707077,-0.024113652471054597,-0.014940096756696039,0.8344009,-0.10296803,-0.11518201,0.027709961
-0.11032213,0.0,-0.15564473,0.070787795,0.05161249,0.9961552,0.9902336,0.11661525,-0.076409,0.12011062,-0.9918352,0.042853493,-0.37550038833618166,0.9649822666645049,-0.3813431701660157,0.09932909476255451,-0.0191681728753768,-0.016772112123742636,0.82394993,-0.07611062,-0.12579557,0.027832031
-0.15095766,0.0,-0.17616235,0.07054519,0.047790024,0.99636316,0.9896518,0.12176624,-0.07591041,0.12495123,-0.99140763,0.03870547,-0.04995417232513433,0.9035157173633575,-0.3186957656860354,0.09858267842711607,-0.01455475342418313,-0.0182817303915541,0.82394993,-0.051074233,-0.13462663,0.027709961
-0.18693009,0.0,-0.1746968,0.07032459,0.042948093,0.9965992,0.9890471,0.12696993,-0.07526336,0.12977064,-0.99097633,0.033548582,0.2921402164459228,1.2588503541469573,0.04535115814208979,0.0995504661172101,-0.008187727886327427,-0.01796356594888588,0.8320808,-0.01603787,-0.13462663,0.027832031
-0.15535429,0.0,-0.20174274,0.07009539,0.03904994,0.9967757,0.98832095,0.13281983,-0.07470417,0.13530885,-0.99037063,0.029283818,0.5553085624694825,0.6881454914569853,0.18491437683105438,0.10182925659897148,-0.004706061789610864,-0.01694917623498618,0.8474684,0.0030306145,-0.12950265,0.027709961
-0.07488263,0.0,-0.2403798,0.06984062,0.037447583,0.9968551,0.9874138,0.13955474,-0.07442158,0.14190282,-0.989506,0.027229676,1.1467279878616332,0.47607895145416257,-0.3258125625610351,0.1070537502552848,-0.0023021367233919962,-0.018493493166616422,0.87924415,0.016222743,-0.13853091,0.027709961
-0.096332856,0.0,-0.28567842,0.06955252,0.03533816,0.99695224,0.98627734,0.14756504,-0.07403836,0.14973174,-0.9884209,0.024589714,1.4152500872612,0.5083004590034484,-0.03944105682373156,0.11359473194031437,0.000250876255242206,-0.018598230984901997,0.91846067,0.030307729,-0.13853091,0.027709961
-0.19385812,0.0,-0.30459726,0.06927324,0.03054699,0.99713,0.9849892,0.15631828,-0.07321854,0.15810633,-0.9872343,0.01925979,1.949443932342529,0.16404091324806208,-0.02917617187500099,0.12277397794232545,0.0010698264402063053,-0.018651120689352492,0.97271764,0.03487332,-0.13853091,0.027832031
-0.20758094,-0.077521935,-0.2758193,0.07120166,0.025348105,0.9971399,0.9836055,0.16426599,-0.07441096,0.16568242,-0.98609036,0.013236535,2.1009194051742552,-0.15715096101760864,-0.03645414428710936,0.1326647050784851,0.00027872250291723045,-0.01874013580734128,1.0309341,0.030518675,-0.13853091,0.027709961
-0.07115215,-0.100171246,-0.14685148,0.07388128,0.02367009,0.99698615,0.9827148,0.16843411,-0.07682257,0.16974495,-0.9854287,0.010816829,2.0536471792221067,-0.25596368079185483,-0.38213805084228625,0.14226961744920322,-0.0010024895135566298,-0.020557125382516004,1.0880913,0.023394685,-0.14916658,0.027832031
0.0,0.0,-0.07877031,0.07382898,0.023832716,0.99698615,0.9823415,0.1705976,-0.07682257,0.17191441,-0.9850525,0.010816829,1.8793725675582884,-0.2982263185739517,-0.14271788482666103,0.15095513219974865,-0.0024886086588586055,-0.02116792917973673,1.1406274,0.015058037,-0.15315613,0.027954102
0.18345276,-0.056604624,0.07964164,0.07548642,0.028843485,0.9967296,0.98259825,0.16797614,-0.07927707,0.1697135,-0.985369,0.01566165,1.3582845573425293,-0.17634146733283995,0.24042351989746003,0.15699177932546257,-0.003357872952228512,-0.019859971934350747,1.1790944,0.010063992,-0.14634727,0.028320312
0.3410653,0.0,0.17130473,0.075648814,0.03810307,0.99640626,0.98339975,0.16243361,-0.08087284,0.16493145,-0.98598355,0.02518265,0.9425287106513975,-0.9643405139446258,0.07832781524658117,0.16091946398209225,-0.008162786157190498,-0.019369032998446088,1.2057872,-0.017246433,-0.14634727,0.028320312
0.3525232,0.0,0.2198009,0.07591549,0.04757722,0.99597853,0.9843892,0.15549345,-0.08245991,0.15879145,-0.9866906,0.035030153,0.6382991627693175,-1.237251849079132,-0.08276653137207113,0.1633063624760284,-0.014308231471800206,-0.019686020490314215,1.223864,-0.05228579,-0.14634727,0.028320312
0.13615566,0.0,0.23285756,0.07623737,0.0508869,0.99579036,0.98538375,0.1487381,-0.08304142,0.15233776,-0.98756653,0.038803734,0.2665020235061645,-1.5156275912284851,-0.4209359542846691,0.16382234078117908,-0.021814828270583633,-0.02169227015928599,1.2313464,-0.09483881,-0.15816554,0.028076172
-0.074749395,0.0,0.19755128,0.07651032,0.04839518,0.99589366,0.98618716,0.14349042,-0.082737446,0.14690533,-0.9884677,0.036748216,-0.4448019476890564,-1.1804608095645905,-0.09392214813232513,0.1607792193388279,-0.027608058177053668,-0.022053419549151184,1.2189666,-0.12769343,-0.15816554,0.027832031
-0.29284894,0.0,0.18795864,0.076740295,0.039912928,0.99625194,0.98692286,0.13901876,-0.08159116,0.1417543,-0.9894851,0.028722651,-0.5427777701377869,-0.99129198513031,-0.008776589965821202,0.15726143439144483,-0.03242647781181995,-0.021987035401234534,1.2039262,-0.1551621,-0.15816554,0.027709961
-0.41262382,0.0,0.2393859,0.076966405,0.027957004,0.9966417,0.9878303,0.13336805,-0.08002702,0.13515751,-0.9906722,0.01735193,-0.5210064354896545,-0.7184976171970368,0.0880386154174797,0.15387009504203933,-0.03585683350874603,-0.021436907147140964,1.1894256,-0.17515935,-0.15816554,0.027832031
-0.32415825,0.0,0.18742572,0.07708731,0.018603522,0.9968508,0.9885115,0.12894934,-0.07884887,0.13001017,-0.99147666,0.00844945,-0.6442714014053345,-1.2918978992700576,0.004628274536132793,0.14987938755980246,-0.042137038837552585,-0.021306581238724594,1.1715728,-0.2109578,-0.15816554,0.027709961
0.0,0.0,0.05712556,0.07711667,0.018481474,0.9968508,0.9887144,0.12738442,-0.07884887,0.12844056,-0.9916812,0.00844945,-1.0372022844314575,-0.4144484282493591,0.339816506958007,0.14394397919984614,-0.04399859578461161,-0.019500965797740934,1.1428319,-0.22244215,-0.14874925,0.027709961
0.0,0.0,0.0,0.07711667,0.018481474,0.9968508,0.9887144,0.12738442,-0.07884887,0.12844056,-0.9916812,0.00844945,-1.3915441301345823,-0.12475002737045288,-0.11268760681152479,0.136266538653174,-0.04440235294254082,-0.019966899002809853,1.1041024,-0.2259142,-0.15188557,0.027832031
0.0,0.0,0.0,0.07711667,0.018481474,0.9968508,0.9887144,0.12738442,-0.07884887,0.12844056,-0.9916812,0.00844945,-1.262257240486145,0.5312612275123596,-0.3209831512451178,0.1292739197574774,-0.04152403504026632,-0.02147198026402139,1.0689712,-0.21112812,-0.16081919,0.027832031
0.0,0.0,0.0,0.07711667,0.018481474,0.9968508,0.9887144,0.12738442,-0.07884887,0.12844056,-0.9916812,0.00844945,-1.2574688371658325,0.9143334931373595,0.06927171936035137,0.12234020597286085,-0.03674474739937819,-0.021018261765899528,1.0332057,-0.1851223,-0.16081919,0.028442383
0.0,0.0,-0.081434935,0.07707458,0.018656211,0.9968508,0.98842305,0.12962501,-0.07884886,0.13068789,-0.9913876,0.008449451,-1.036798224544525,0.7019662786245345,-0.14860063171386706,0.11654451382027392,-0.03305119226925863,-0.021656173615639363,1.0043496,-0.16558515,-0.16495505,0.027832031
0.17865643,0.09128205,-0.14765087,0.07445438,0.02392455,0.9969374,0.98808086,0.13329877,-0.076991804,0.13473259,-0.99078715,0.013714727,-0.6309662256240844,0.9075697058439254,0.12350675354003826,0.11280696012305212,-0.028348087778692712,-0.020930358979860973,0.9867885,-0.14032564,-0.1615176,0.027832031
0.15347573,0.0,-0.14645179,0.07434808,0.028466066,0.996826,0.98753244,0.13697883,-0.07756653,0.13875215,-0.99016494,0.017927065,-0.40010237512588503,1.1823998896598815,0.16048980102539012,0.11024241344680744,-0.02229434789149984,-0.02002325817983472,0.9757017,-0.10756138,-0.15707044,0.027709961
0.07033943,0.0,-0.11141196,0.07425643,0.03064789,0.9967681,0.98710316,0.13988823,-0.077837534,0.14182176,-0.9896929,0.019865045,-0.0161502257347107,1.2524340037345885,-0.1334419647216798,0.10961045025089985,-0.015920706133369395,-0.020590351712543944,0.9757017,-0.0727036,-0.16078441,0.027832031
0.0,0.0,-0.19494794,0.07408979,0.031048577,0.9967681,0.9863331,0.14521852,-0.077837534,0.14716601,-0.98891234,0.019865045,0.33260874404907215,0.76256448097229,-0.17414339294433567,0.11072544171989072,-0.012028280197841097,-0.021358116918702902,0.98491824,-0.051572967,-0.16560991,0.027709961
0.07593514,0.0,-0.26009804,0.07385654,0.033679053,0.99670005,0.98526144,0.15215947,-0.078150414,0.15428944,-0.987782,0.021944715,0.8472070670127867,0.5840829642772674,0.23591835784912085,0.1144078498463552,-0.009047723975465554,-0.020071734544863783,1.0083944,-0.035388052,-0.15907262,0.027709961
0.1337575,0.0,-0.2574334,0.07360005,0.037917588,0.9965668,0.984147,0.15892287,-0.078729466,0.16136254,-0.98656267,0.025619764,1.3165387182235717,0.4811437162876129,-0.28713197479248187,0.1204185041882413,-0.006596766774150162,-0.021407035746101873,1.0450363,-0.021996846,-0.16706409,0.027832031
0.15387541,0.0,-0.28927568,0.0732752,0.042776536,0.996394,0.98283696,0.16650258,-0.079426326,0.16929981,-0.9851128,0.029841864,1.4513383245468137,0.53026578373909,0.05450310058593644,0.12707310329003416,-0.003912454021583961,-0.021027485064441683,1.08543,-0.0072384723,-0.16706409,0.027832031
0.0,0.0,-0.26569375,0.072956875,0.04331722,0.996394,0.9815788,0.17376591,-0.079426326,0.1765799,-0.9838339,0.029841864,1.9188693767547607,0.08693629884719845,-0.4003952148437513,0.1360320846573578,-0.0034582102572400493,-0.02292432371333823,1.138836,-0.0072384723,-0.1782079,0.027832031
-0.05982749,0.0,-0.23278563,0.07268127,0.042135026,0.9964648,0.9804371,0.18022539,-0.0791329,0.18292259,-0.9827225,0.02821175,1.9670050584793088,-0.38773752636909486,-0.2478453247070309,0.14518694952646757,-0.005379606837799323,-0.024048928718306693,1.1933416,-0.017982664,-0.18507569,0.027709961
-0.10565904,0.0,-0.24237826,0.072405264,0.039693873,0.99658513,0.9791982,0.18706712,-0.078592844,0.18954803,-0.9815449,0.025323544,2.0702111930847167,-0.2900821888923645,-0.2082997497558594,0.15481207074425882,-0.006803119748072149,-0.024970182823494457,1.2509598,-0.02605624,-0.19087309,0.027832031
-0.050234847,0.0,-0.11993876,0.07227524,0.038547,0.9966396,0.97857094,0.19042967,-0.07833011,0.19280921,-0.9809438,0.023957642,1.5974074452400204,0.14230729446411128,0.2915657836914054,0.16202504761673764,-0.006057567677011232,-0.023387502990919958,1.2952238,-0.02211291,-0.18279381,0.027709961
0.14641446,0.0,0.0,0.07227524,0.042608,0.99647427,0.97857094,0.1901089,-0.07910546,0.19280921,-0.980838,0.0279548,1.1760279530525206,-0.7538025396823883,0.14710639648437507,0.16709506214391656,-0.009796292537038117,-0.022535033493543483,1.3279551,-0.043092765,-0.17869954,0.027832031
0.1717284,0.0,0.18622664,0.072507456,0.046995033,0.9962601,0.97954214,0.18465409,-0.08000107,0.18772322,-0.9816794,0.032644834,1.0349350430488586,-0.8916862050056458,-0.13574747924804775,0.17143426204844125,-0.014205742099381156,-0.023101095722316004,1.3567594,-0.0679102,-0.18247767,0.027832031
0.10471309,0.0,0.2637672,0.07285957,0.049354367,0.99612033,0.98086476,0.1772568,-0.080526136,0.18054348,-0.98292637,0.035495125,0.8112881916999817,-1.1250255969047545,-0.0721564163208015,0.17463353169669896,-0.019759841373408023,-0.023346372325308434,1.3792402,-0.099084616,-0.18247767,0.027709961
0.0,0.0,0.2701623,0.073227,0.048807543,0.99612033,0.98216426,0.16990888,-0.080526136,0.17318006,-0.9842504,0.035495125,0.4749667580604553,-1.234697746515274,-0.029060786437989705,0.17613519782851775,-0.02583453089911735,-0.02337494439587184,1.3924015,-0.13329804,-0.18247767,0.027709961
-0.07887956,0.0,0.23152524,0.07353295,0.04614769,0.9962246,0.9832393,0.16375284,-0.08015987,0.16683388,-0.9854215,0.03333301,0.23979217815399168,-0.9122821108341217,0.015428640747069622,0.1764534827301451,-0.030266768798792372,-0.023180926470157133,1.3990754,-0.15868871,-0.18247767,0.027832031
-0.10685812,0.0,0.23045939,0.073816724,0.042727105,0.99635607,0.98426574,0.15770715,-0.07968394,0.16053724,-0.9865612,0.03041342,-0.16276378898620614,-1.0709805845260618,0.0740210174560545,0.17475739637156334,-0.03547033787742872,-0.022694916750526074,1.3945652,-0.18836553,-0.18247767,0.027709961
-0.10685812,0.0,0.19861713,0.07404265,0.039369766,0.9964777,0.98511946,0.15252295,-0.07922463,0.15510486,-0.9875155,0.027490739,-0.4570252853393555,-1.3284484591960908,0.005815119934082347,0.17159848296300875,-0.04193522848402203,-0.022552366567103032,1.381901,-0.22517678,-0.18247767,0.027709961
-0.17400667,0.0,0.17170443,0.074218415,0.034189112,0.9966558,0.985838,0.14819533,-0.07849644,0.15038355,-0.988367,0.022706125,-0.6263067494392395,-0.7687491515636444,-0.25925604705810557,0.16760895680099752,-0.04556929809942014,-0.023735884969558044,1.3644696,-0.24657263,-0.18969329,0.027832031
-0.2227693,0.0,0.16450994,0.07436003,0.02766889,0.99684757,0.9865073,0.1441638,-0.07759009,0.14585626,-0.989167,0.016575556,-1.0370747556686402,-0.19618996300697328,-0.20124255065918106,0.16158553823864935,-0.04632240142395791,-0.02462341829800616,1.3356057,-0.252033,-0.19529428,0.027832031
-0.13936654,0.0,0.15811484,0.07447256,0.023474555,0.99694675,0.98713285,0.140121,-0.077038735,0.14150172,-0.9898561,0.012737352,-1.160259314918518,0.5288174060583114,0.2934054260253909,0.15497631397286352,-0.04344670238654656,-0.023033274076389176,1.3033134,-0.23731494,-0.1871282,0.027832031
0.06887388,0.0,0.05699233,0.0745121,0.025306717,0.99689895,0.98735857,0.13836949,-0.07731151,0.139897,-0.99005735,0.014676618,-1.3066852381706238,0.19040560426712033,0.39442061309814314,0.14766800621214607,-0.04227744085327823,-0.020946004640516512,1.2661481,-0.23189935,-0.17590994,0.028442383
0.09432105,0.0838211,0.0,0.0721761,0.027935343,0.99700063,0.98753744,0.13816822,-0.07536234,0.13985917,-0.9900148,0.01761477,-1.274682720375061,0.14841134438514708,-0.1763749908447263,0.14055625257921003,-0.04132399692708611,-0.02172314957153756,1.2305155,-0.22775064,-0.18084034,0.027954102
0.10378047,0.062370874,-0.11953907,0.07034723,0.031052262,0.99703914,0.98720235,0.14123744,-0.07405187,0.14311883,-0.98948866,0.020719219,-1.0871372583389283,1.004343473291397,-0.20786963806152414,0.13441778502461935,-0.03609565957599369,-0.022653882013987492,1.2002583,-0.19979772,-0.18662578,0.027832031
-0.07315062,0.0,-0.15644412,0.07021578,0.029328303,0.9971006,0.9865776,0.14568499,-0.07375979,0.14742595,-0.98889625,0.01870528,-0.7626580846786499,1.0400471208572386,-0.07199046783447294,0.12993240567610298,-0.03071494567382753,-0.022900564943089917,1.179032,-0.1708511,-0.18662578,0.027832031
-0.13563608,0.0,-0.20653906,0.07005684,0.025967157,0.99720496,0.9857231,0.15163125,-0.0731986,0.15310828,-0.988096,0.014973637,-0.5767787971496582,0.7036071290493011,0.3220514480590815,0.12639884966197418,-0.027043335300211885,-0.021175804878079057,1.162979,-0.15126827,-0.17766243,0.027832031
-0.09593316,-0.064998195,-0.26236296,0.07167901,0.023822138,0.99714327,0.98445517,0.15902185,-0.074565955,0.16034397,-0.98698765,0.012053316,-0.3529314770698548,0.9396774911403656,0.0018206573486327926,0.12400219802831504,-0.022209731168008996,-0.021060822566945497,1.1531562,-0.12511514,-0.17766243,0.027832031
0.0,0.0,-0.24824044,0.07151345,0.024314635,0.99714327,0.983338,0.1657899,-0.074565955,0.16712941,-0.98586136,0.012053316,0.23763148918151855,1.1432450610399245,-0.599123959350587,0.12457034448408107,-0.016382457206969327,-0.023951138250863705,1.1597409,-0.09343587,-0.19426413,0.027709961
0.18465184,0.120992616,-0.25969833,0.06795927,0.029943611,0.9972387,0.98236233,0.17251709,-0.0721255,0.17420048,-0.98455125,0.017691357,0.6835543767929075,1.0508995631694793,0.041605604553222264,0.1273652646456252,-0.011046047105087085,-0.023623354536843274,1.1787657,-0.0641872,-0.19426413,0.027832031
0.11190758,0.0,-0.30166617,0.06769243,0.03361901,0.9971397,0.98088026,0.18053344,-0.072675325,0.1824604,-0.98299414,0.020755494,0.9758144660949706,0.6445144124984741,0.19817952575683506,0.13160751065287193,-0.007768244807069278,-0.022514340135374882,1.2059245,-0.046249054,-0.18874839,0.027832031
0.09552013,0.0,-0.361487,0.06733743,0.03694915,0.9970459,0.97901523,0.19019902,-0.073168136,0.1923407,-0.98105,0.02336629,1.4891874344825742,0.45452770466804504,-0.4904502838134768,0.13839541027202046,-0.005456765059693707,-0.024854019853765393,1.2473717,-0.033598624,-0.20239861,0.027832031
0.0,0.0,-0.4035881,0.06691814,0.037703197,0.9970459,0.976817,0.20118397,-0.073168136,0.20334838,-0.9788276,0.02336629,1.5985574687957764,0.11688901066780089,-0.17441566467285163,0.14569622056463924,-0.004845036181056234,-0.025601828077860822,1.2918627,-0.030345365,-0.20725295,0.027832031
-0.05756256,0.0,-0.32178408,0.06658351,0.03669921,0.9971057,0.9749673,0.21007997,-0.07283725,0.21214506,-0.97699517,0.02179269,1.941746616077423,0.12173891682624816,-0.04570288696289104,0.15467647254220315,-0.004212116416019712,-0.025702333372285974,1.3461425,-0.026942264,-0.20725295,0.027954102
0.0,0.0,-0.2886095,0.06628001,0.03724454,0.9971057,0.97321,0.21807614,-0.07283725,0.22015782,-0.9752208,0.02179269,1.9901500418663023,-0.36233661036491394,0.026123162841797054,0.16385384038882364,-0.006002738885764183,-0.02544320589121556,1.4027472,-0.037247982,-0.20725295,0.028442383
0.0,-0.054606155,-0.25716695,0.0675489,0.037731886,0.99700224,0.9714821,0.22515789,-0.07434097,0.227288,-0.9735914,0.021446705,1.9492382206916807,-0.08449933204650878,-0.2937070846557628,0.17278076229033792,-0.006395221851567906,-0.026784525285038295,1.4579502,-0.037247982,-0.21557082,0.028320312
0.0,0.0,-0.10461717,0.067436814,0.037931852,0.99700224,0.9708107,0.2280352,-0.07434097,0.23017156,-0.97291374,0.021446707,1.6821636774063111,-0.32344498319625853,-0.03992170867920031,0.1803276768659178,-0.007980470658291359,-0.026850211202009106,1.5055896,-0.046408046,-0.21557082,0.028320312
0.06634249,0.0,0.0671179,0.06750993,0.039661698,0.99693,0.97123855,0.22606651,-0.07476389,0.22833782,-0.9733041,0.023259265,1.3773981622695923,-0.7159411833286284,-0.012891215515137944,0.1863130292929362,-0.011520274221643045,-0.02678041622357475,1.5442617,-0.066508934,-0.21557082,0.028076172
0.121633455,0.0,0.20554516,0.0677443,0.042636428,0.9967913,0.9725097,0.22027774,-0.07551609,0.22279076,-0.97450495,0.026541807,1.1165744268417357,-0.7397102593898772,-0.07380912933349748,0.1909643362806802,-0.015161224147484217,-0.027015559789124365,1.5752019,-0.08700628,-0.21557082,0.027709961
0.06274524,0.0,0.27322662,0.06807318,0.043860696,0.9967158,0.97415614,0.21274376,-0.07589419,0.21537392,-0.97612315,0.02824505,0.8835737498283385,-0.935816780090332,-0.056324925231933776,0.1944273833484185,-0.019764501927198454,-0.027162106616338413,1.5997936,-0.11305196,-0.21557082,0.027832031
0.0,0.0,0.33691117,0.068479694,0.04322327,0.9967158,0.97609985,0.20363997,-0.07589419,0.20625165,-0.9780913,0.02824505,0.7048945337295531,-1.0541959555625915,-0.18800601654052862,0.1969797191003242,-0.02493665919537542,-0.027966326165959364,1.6193261,-0.14226368,-0.22078046,0.027709961
-0.090070985,0.0,0.37315005,0.0689101,0.040025078,0.9968197,0.9781543,0.19372502,-0.075398296,0.19612682,-0.9802391,0.025801118,0.2817773300170898,-1.2485482014656066,0.04802240447997974,0.19740370715490801,-0.031054716906726575,-0.027586382512729667,1.6271342,-0.1768609,-0.22078046,0.027709961
-0.09260238,0.0,0.40139508,0.0693386,0.036683492,0.99691856,0.9802586,0.18297902,-0.07491284,0.18516332,-0.9824321,0.023271825,-0.13892731380462653,-1.2021037120819091,0.0015836669921878155,0.19572205205011034,-0.03690996188260249,-0.02744053226520508,1.6232675,-0.21031788,-0.22078046,0.027832031
-0.12018125,0.0,0.36662173,0.069692284,0.032639276,0.9970345,0.9820758,0.17321664,-0.0743171,0.17512873,-0.9843428,0.01998241,-0.5613079829216003,-1.2231342251300812,0.0172301406860349,0.19193690187525178,-0.04284108319883988,-0.02721717890044888,1.6076452,-0.2443602,-0.22078046,0.027832031
