GyroX,GyroY,GyroZ,ExpGravityX,ExpGravityY,ExpGravityZ,ExpOxX,ExpOxY,ExpOxZ,ExpOyX,ExpOyY,ExpOyZ,AccX,AccY,AccZ,AccNoiseX,AccNoiseY,AccNoiseZ,ExpSpeedX,ExpSpeedY,ExpSpeedZ,dT
0.0,0.0,0.0,0.10036642,-0.0060221856,0.99493235,0.9949506,0.00060749264,-0.10036458,-5.820766e-11,-0.9999817,-0.0060527483,-0.07857756109237679,0.00787693298459053,0.007230413818358983,-0.00039288780546188395,3.938466492295265e-05,3.6152069091794916e-05,0.0,0.0,0.0,0.004463196
0.0,0.0,0.0,0.10036642,-0.0060221856,0.99493235,0.9949506,0.00060749264,-0.10036458,-5.820766e-11,-0.9999817,-0.0060527483,0.021978908634185723,-0.02803609191775322,0.004836212158203068,-0.0002810288232636459,-0.00010099271799042823,6.0152369537351283e-05,0.0,0.0,0.0,0.01914215
0.0,0.0,0.0,0.10036642,-0.0060221856,0.99493235,0.9949506,0.00060749264,-0.10036458,-5.820766e-11,-0.9999817,-0.0060527483,0.02437311029434197,0.02224214294552803,-0.004740594482422367,-0.00015775812767561783,1.072296032716406e-05,3.614863527755269e-05,0.0,0.0,0.0,0.017150879
0.0,0.0,0.0,0.10036642,-0.0060221856,0.99493235,0.9949506,0.00060749264,-0.10036458,-5.820766e-11,-0.9999817,-0.0060527483,-0.03787613286972047,0.003088529664278035,0.04074923706054712,-0.0003463500013858421,2.6111993846918412e-05,0.00023971407740390054,0.0,0.0,0.0,0.017036438
0.0,0.0,0.0,0.10036642,-0.0060221856,0.99493235,0.9949506,0.00060749264,-0.10036458,-5.820766e-11,-0.9999817,-0.0060527483,-0.021116721248626735,0.06294357116818428,-0.004740594482422367,-0.0004502018576220466,0.00034069928971860525,0.0002148125346047692,0.0,0.0,0.0,0.01701355
0.0,0.0,0.0,0.10036642,-0.0060221856,0.99493235,0.9949506,0.00060749264,-0.10036458,-5.820766e-11,-0.9999817,-0.0060527483,0.03873832025527957,-0.047189705199003215,0.028778228759765767,-0.00025425924705753844,0.00010304726727499613,0.0003576296157305742,0.0,0.0,0.0,0.017089844
0.0,0.0,0.0,0.10036642,-0.0060221856,0.99493235,0.9949506,0.00060749264,-0.10036458,-5.820766e-11,-0.9999817,-0.0060527483,-0.02590512456893923,-0.016065083616971967,-0.03107681274414098,-0.00038251357366694686,2.2206612853761307e-05,0.00020045740393121643,0.0,0.0,0.0,0.01701355
0.0,0.0,0.0,0.10036642,-0.0060221856,0.99493235,0.9949506,0.00060749264,-0.10036458,-5.820766e-11,-0.9999817,-0.0060527483,0.021978908634185723,-0.00888247863650321,0.057508648681640295,-0.0002707064626276835,-2.2316813393023554e-05,0.00048699836031976186,0.0,0.0,0.0,0.017044067
0.0,0.0,0.0,0.10036642,-0.0060221856,0.99493235,0.9949506,0.00060749264,-0.10036458,-5.820766e-11,-0.9999817,-0.0060527483,-0.02590512456893923,0.02224214294552803,-0.04783622436523416,-0.00039887855315924126,8.900548540158171e-05,0.0002453822466919923,0.0,0.0,0.0,0.017028809
0.0,0.0,0.0,0.10036642,-0.0060221856,0.99493235,0.9949506,0.00060749264,-0.10036458,-5.820766e-11,-0.9999817,-0.0060527483,0.07704554681777953,0.017453739625215535,-0.004740594482422367,-1.1656426304547407e-05,0.0001758291561006515,0.0002204523630464205,0.0,0.0,0.0,0.017066956
0.0,0.0,0.0,0.10036642,-0.0060221856,0.99493235,0.9949506,0.00060749264,-0.10036458,-5.820766e-11,-0.9999817,-0.0060527483,-0.02829932622909548,0.03181894958615303,0.007230413818358983,-0.00015309477531850208,0.00033404475825091337,0.0002555021703229833,0.0,0.0,0.0,0.016967773
0.0,0.0,0.0,0.10036642,-0.0060221856,0.99493235,0.9949506,0.00060749264,-0.10036458,-5.820766e-11,-0.9999817,-0.0060527483,0.02676731195449822,0.00787693298459053,0.021595623779296247,-1.849274166941845e-05,0.00037175919938261143,0.0003622027783678496,0.0,0.0,0.0,0.017501831
0.0,0.0,0.0,0.10036642,-0.0060221856,0.99493235,0.9949506,0.00060749264,-0.10036458,-5.820766e-11,-0.9999817,-0.0060527483,-0.009145712947845497,-0.004094075316190715,-0.007134796142578281,-6.412884270029884e-05,0.0003494300268047448,0.000324717783763119,0.0,0.0,0.0,0.017082214
0.0,0.0,0.0,0.10036642,-0.0060221856,0.99493235,0.9949506,0.00060749264,-0.10036458,-5.820766e-11,-0.9999817,-0.0060527483,0.02676731195449822,0.0006943280041217803,4.780883788946255e-05,7.002836128569376e-05,0.00035115451669132997,0.0003233332390337507,0.0,0.0,0.0,0.01702118
0.0,0.0,0.0,0.10036642,-0.0060221856,0.99493235,0.9949506,0.00060749264,-0.10036458,-5.820766e-11,-0.9999817,-0.0060527483,-0.009145712947845497,0.019847941285371783,0.11018108520507752,2.3949654740037812e-05,0.00044863845053473225,0.0008726219988639695,0.0,0.0,0.0018678465,0.016952515
0.0,0.0,0.0,0.10036642,-0.0060221856,0.99493235,0.9949506,0.00060749264,-0.10036458,-5.820766e-11,-0.9999817,-0.0060527483,-0.018722519588470488,-0.025641890257596958,0.019201422119140332,-6.978269147601481e-05,0.0003181858069940738,0.0009642659994653514,0.0,0.0,0.0018678465,0.016937256
0.0,0.0,0.0,0.10036642,-0.0060221856,0.99493235,0.9949506,0.00060749264,-0.10036458,-5.820766e-11,-0.9999817,-0.0060527483,-0.013934116268157992,0.05815516784787178,0.016807220458984418,-0.00013910435935942468,0.0006073707171984624,0.0010434807717629466,0.0,0.0,0.0018678465,0.01702118
0.0,0.0,0.0,0.10036642,-0.0060221856,0.99493235,0.9949506,0.00060749264,-0.10036458,-5.820766e-11,-0.9999817,-0.0060527483,0.041132521915435705,0.003088529664278035,-0.045442022705078244,6.725377201455098e-05,0.0006197765119338602,0.0008110532543787407,0.0,0.0,0.0018678465,0.016998291
0.0,0.0,0.0,0.10036642,-0.0060221856,0.99493235,0.9949506,0.00060749264,-0.10036458,-5.820766e-11,-0.9999817,-0.0060527483,0.007613698673248237,0.06294357116818428,0.033566632080077596,0.0001049859965207194,0.0009313954852151122,0.0009748311485072349,0.0,0.0,0.0018678465,0.016952515
0.0,0.0,0.0,0.10036642,-0.0060221856,0.99493235,0.9949506,0.00060749264,-0.10036458,-5.820766e-11,-0.9999817,-0.0060527483,-0.0690007544517518,-0.032824495238065715,0.016807220458984418,-0.00024054270572064322,0.0007626160315987082,0.0010539930950596208,0.0,0.0,0.0018678465,0.016960144
0.0,0.0,0.0,0.10036642,-0.0060221856,0.99493235,0.9949506,0.00060749264,-0.10036458,-5.820766e-11,-0.9999817,-0.0060527483,0.04831512689590456,0.03660735290646553,0.050326043701170775,2.2356422874827834e-06,0.0009418397159730423,0.0013003533480901767,0.0,0.0,0.0018678465,0.01700592
0.0,0.0,0.0,0.10036642,-0.0060221856,0.99493235,0.9949506,0.00060749264,-0.10036458,-5.820766e-11,-0.9999817,-0.0060527483,-0.021116721248626735,0.04378995788693428,-0.06698983764648503,-0.00010335914216708831,0.0011560803068278486,0.0009589023931173005,0.0,0.0,0.0018678465,0.016975403
0.0,0.0,0.0,0.10036642,-0.0060221856,0.99493235,0.9949506,0.00060749264,-0.10036458,-5.820766e-11,-0.9999817,-0.0060527483,0.007613698673248237,0.0006943280041217803,-0.016711602783203716,-6.477385309001168e-05,0.0011537715453143183,0.0008705498672356954,0.0,0.0,0.0018678465,0.016952515
0.0,0.0,0.0,0.10036642,-0.0060221856,0.99493235,0.9949506,0.00060749264,-0.10036458,-5.820766e-11,-0.9999817,-0.0060527483,-0.04027033452987672,0.03421315124630928,0.028778228759765767,-0.0002658016564739452,0.001319068443819293,0.0010100882616983459,0.0,0.0,0.0018678465,0.016960144
0.0,0.0,0.0,0.10036642,-0.0060221856,0.99493235,0.9949506,0.00060749264,-0.10036458,-5.820766e-11,-0.9999817,-0.0060527483,0.031555715274810714,0.027030546265840533,-0.014317401123047802,-0.0001066940718175219,0.0014476258329293992,0.0009334508147746152,0.0,0.0,0.0018678465,0.016990662
0.0,0.0,0.0,0.10036642,-0.0060221856,0.99493235,0.9949506,0.00060749264,-0.10036458,-5.820766e-11,-0.9999817,-0.0060527483,-0.006751511287689249,0.07012617614865303,-0.011923199462891887,-0.00013991815789688055,0.0017910185845080174,0.0008691675633862826,0.0,0.0,0.0018678465,0.017044067
0.0,0.0,0.0,0.10036642,-0.0060221856,0.99493235,0.9949506,0.00060749264,-0.10036458,-5.820766e-11,-0.9999817,-0.0060527483,0.01479630365371698,-0.011276680296659472,-0.011923199462891887,-6.523704883881125e-05,0.00172568009010218,0.0008052057282548917,0.0,0.0,0.0018678465,0.016983032
0.0,0.0,0.0,0.10036642,-0.0060221856,0.99493235,0.9949506,0.00060749264,-0.10036458,-5.820766e-11,-0.9999817,-0.0060527483,0.029161513614654466,0.03660735290646553,0.038355035400389426,8.089670447865515e-05,0.0019000884541839967,0.0009929548766155645,0.0,0.0,0.0018678465,0.016937256
0.0,0.0,0.0,0.10036642,-0.0060221856,0.99493235,0.9949506,0.00060749264,-0.10036458,-5.820766e-11,-0.9999817,-0.0060527483,-0.0737891577720643,-0.004094075316190715,-0.09811445922851547,-0.00028845356790405965,0.0018701176353321232,0.0004974178060899094,0.0,0.0,0.0018678465,0.016990662
0.0,0.0,0.0,0.10036642,-0.0060221856,0.99493235,0.9949506,0.00060749264,-0.10036458,-5.820766e-11,-0.9999817,-0.0060527483,0.04352672357559206,0.06773197448849679,-0.03586521606445281,-6.937768218657903e-05,0.0021994269195979464,0.0003156046367371958,0.0,0.0,0.0018678465,0.016952515
0.0,0.0,0.0,0.10036642,-0.0060221856,0.99493235,0.9949506,0.00060749264,-0.10036458,-5.820766e-11,-0.9999817,-0.0060527483,-0.12167319097518925,-0.016065083616971967,0.0024420104980471535,-0.0006773967486515924,0.002108104366915097,0.00032623666604374553,-0.002058025,0.0,0.0018678465,0.016914368
0.0,0.0,0.0,0.10036642,-0.0060221856,0.99493235,0.9949506,0.00060749264,-0.10036458,-5.820766e-11,-0.9999817,-0.0060527483,0.08662235345840452,-0.02324768859744071,0.016807220458984418,-0.00024089799761631178,0.0019813254020933178,0.0004086415850084489,-0.002058025,0.0,0.0018678465,0.016975403
0.0,0.0,0.0,0.10036642,-0.0060221856,0.99493235,0.9949506,0.00060749264,-0.10036458,-5.820766e-11,-0.9999817,-0.0060527483,0.021978908634185723,-0.02803609191775322,-0.014317401123047802,-0.0001297989644573016,0.001831238315494085,0.0003350113714681677,-0.002058025,0.0,0.0018678465,0.017044067
0.0,0.0,0.0,0.10036642,-0.0060221856,0.99493235,0.9949506,0.00060749264,-0.10036458,-5.820766e-11,-0.9999817,-0.0060527483,0.06507453851699818,-0.016065083616971967,0.012018817138670812,0.00019622272294997584,0.0017417567058317547,0.0003934304003041809,-0.002058025,0.0,0.0018678465,0.01702118
0.0,0.0,0.0,0.10036642,-0.0060221856,0.99493235,0.9949506,0.00060749264,-0.10036458,-5.820766e-11,-0.9999817,-0.0060527483,-0.0043573096275330014,0.06294357116818428,-0.014317401123047802,0.00017345506119756095,0.0020477657781435175,0.000319876242687421,-0.002058025,0.0,0.0018678465,0.017456055
0.0,0.0,0.0,0.10036642,-0.0060221856,0.99493235,0.9949506,0.00060749264,-0.10036458,-5.820766e-11,-0.9999817,-0.0060527483,-0.02590512456893923,0.012665336304903033,-0.045442022705078244,4.3062163046876987e-05,0.002100853630777315,9.106674794859271e-05,-0.002058025,0.0,0.0018678465,0.017066956
0.0,0.0,0.0,0.10036642,-0.0060221856,0.99493235,0.9949506,0.00060749264,-0.10036458,-5.820766e-11,-0.9999817,-0.0060527483,0.031555715274810714,-0.011276680296659472,-0.002346392822266452,0.00020062542860569617,0.0020339659611401315,7.887945009751749e-05,-0.002058025,0.0,0.0018678465,0.01701355
0.0,0.0,0.0,0.10036642,-0.0060221856,0.99493235,0.9949506,0.00060749264,-0.10036458,-5.820766e-11,-0.9999817,-0.0060527483,-0.011539914608001745,-0.04000710021853446,-0.02628840942382915,0.00014192272842265894,0.0018237606302417585,-5.295699427211585e-05,-0.002058025,0.0,0.0018678465,0.01700592
0.0,0.0,0.0,0.10036642,-0.0060221856,0.99493235,0.9949506,0.00060749264,-0.10036458,-5.820766e-11,-0.9999817,-0.0060527483,0.02676731195449822,0.04139575622677803,0.03117243041992168,0.0002750496745530368,0.00202162060822444,0.00010316994279885314,-0.002058025,0.0,0.0018678465,0.016914368
0.0,0.0,0.0,0.10036642,-0.0060221856,0.99493235,0.9949506,0.00060749264,-0.10036458,-5.820766e-11,-0.9999817,-0.0060527483,-0.04984714117050171,-0.011276680296659472,-0.02628840942382915,2.443872032776304e-05,0.0019551291037000207,-2.878795403428688e-05,-0.002058025,0.0,0.0018678465,0.016998291
0.0,0.0,0.0,0.10036642,-0.0060221856,0.99493235,0.9949506,0.00060749264,-0.10036458,-5.820766e-11,-0.9999817,-0.0060527483,0.04831512689590456,-0.03521869689822196,0.06947965698242164,0.000265892161205647,0.0017692599736904109,0.0003187542706479928,-0.002058025,0.0,0.0018678465,0.016983032
0.0,0.0,0.0,0.10036642,-0.0060221856,0.99493235,0.9949506,0.00060749264,-0.10036458,-5.820766e-11,-0.9999817,-0.0060527483,-0.030693527889251726,0.02224214294552803,-0.04783622436523416,0.00011109506095336019,0.001871624388549599,7.797937746858207e-05,-0.002058025,0.0,0.0018678465,0.01700592
0.0,0.0,0.0,0.10036642,-0.0060221856,0.99493235,0.9949506,0.00060749264,-0.10036458,-5.820766e-11,-0.9999817,-0.0060527483,-0.0019631079673767537,-0.00888247863650321,0.033566632080077596,0.00010072404581170962,0.001817853873424335,0.0002454226409816271,-0.002058025,0.0,0.0018678465,0.016914368
0.0,0.0,0.0,0.10036642,-0.0060221856,0.99493235,0.9949506,0.00060749264,-0.10036458,-5.820766e-11,-0.9999817,-0.0060527483,-0.02590512456893923,-0.006488276976346963,0.04314343872070303,-2.9305197262045096e-05,0.0017763232191754786,0.0004599127213802341,-0.002058025,0.0,0.0018678465,0.017044067
0.0,0.0,0.0,0.10036642,-0.0060221856,0.99493235,0.9949506,0.00060749264,-0.10036458,-5.820766e-11,-0.9999817,-0.0060527483,-0.08815436773300178,0.005482731324434283,0.026384027099608076,-0.0004699305099407438,0.0017948552597017726,0.0005895332932713734,-0.002058025,0.0,0.0018678465,0.016990662
0.0,0.0,0.0,0.10036642,-0.0060221856,0.99493235,0.9949506,0.00060749264,-0.10036458,-5.820766e-11,-0.9999817,-0.0060527483,0.019584706974029475,0.04857836120724678,0.10778688354492161,-0.00036965732252089266,0.0020287727894394976,0.0011255200445296246,-0.002058025,0.0,0.00369675,0.016967773
0.0,0.0,0.0,0.10036642,-0.0060221856,0.99493235,0.9949506,0.00060749264,-0.10036458,-5.820766e-11,-0.9999817,-0.0060527483,-0.05702974615097056,-0.030430293577909467,0.0024420104980471535,-0.000652957766663141,0.0018664774576027528,0.0011321024967972124,-0.002058025,0.0,0.00369675,0.016914368
0.0,0.0,0.0,0.10036642,-0.0060221856,0.99493235,0.9949506,0.00060749264,-0.10036458,-5.820766e-11,-0.9999817,-0.0060527483,0.08901655511856066,0.06294357116818428,0.09342167358398434,-0.00020461020223702192,0.0021718629261556605,0.001593550352233148,-0.002058025,0.0,0.00369675,0.016990662
0.0,0.0,0.0,0.10036642,-0.0060221856,0.99493235,0.9949506,0.00060749264,-0.10036458,-5.820766e-11,-0.9999817,-0.0060527483,-0.1240673926353455,0.04139575622677803,-0.0382594177246105,-0.0008239241144025643,0.0023679823926587725,0.0013942855118489299,-0.004166012,0.0,0.00369675,0.016990662
0.0,0.0,0.0,0.10036642,-0.0060221856,0.99493235,0.9949506,0.00060749264,-0.10036458,-5.820766e-11,-0.9999817,-0.0060527483,0.04831512689590456,-0.02324768859744071,-0.016711602783203716,-0.0005782288593510287,0.002239904037708275,0.0013037560703736666,-0.004166012,0.0,0.00369675,0.016998291
0.0,0.0,0.0,0.10036642,-0.0060221856,0.99493235,0.9949506,0.00060749264,-0.10036458,-5.820766e-11,-0.9999817,-0.0060527483,-0.04505873785018921,-0.03521869689822196,-0.06698983764648503,-0.0008006314043052195,0.0020526110330286234,0.0009622881017893732,-0.004166012,0.0,0.00369675,0.016921997
0.0,0.0,0.0,0.10036642,-0.0060221856,0.99493235,0.9949506,0.00060749264,-0.10036458,-5.820766e-11,-0.9999817,-0.0060527483,0.04831512689590456,0.04378995788693428,0.04314343872070303,-0.0005550526128041706,0.0022612977672981515,0.0011731938548839415,-0.004166012,0.0,0.00369675,0.017051697
0.0,0.0,0.0,0.10036642,-0.0060221856,0.99493235,0.9949506,0.00060749264,-0.10036458,-5.820766e-11,-0.9999817,-0.0060527483,-0.0019631079673767537,-0.0016998736560344674,0.04314343872070303,-0.0005620928895770335,0.0022414919101814883,0.001383045079213037,-0.004166012,0.0,0.00369675,0.016975403
0.0,0.0,0.0,0.10036642,-0.0060221856,0.99493235,0.9949506,0.00060749264,-0.10036458,-5.820766e-11,-0.9999817,-0.0060527483,-0.0019631079673767537,0.003088529664278035,-0.014317401123047802,-0.0005690979649660321,0.002245727098951971,0.0013045428482017327,-0.004166012,0.0,0.00369675,0.016967773
0.0,0.0,0.0,0.10036642,-0.0060221856,0.99493235,0.9949506,0.00060749264,-0.10036458,-5.820766e-11,-0.9999817,-0.0060527483,-0.04984714117050171,-0.020853486937284463,0.007230413818358983,-0.0008154881809937105,0.002130231028770789,0.001334172203052519,-0.004166012,0.0,0.00369675,0.016906738
0.0,0.0,0.0,0.10036642,-0.0060221856,0.99493235,0.9949506,0.00060749264,-0.10036458,-5.820766e-11,-0.9999817,-0.0060527483,-0.07139495611190805,0.003088529664278035,0.014413018798826727,-0.0011683855206482822,0.002135022521948325,0.0013995664360313901,-0.004166012,0.0,0.00369675,0.017028809
0.0,0.0,0.0,0.10036642,-0.0060221856,0.99493235,0.9949506,0.00060749264,-0.10036458,-5.820766e-11,-0.9999817,-0.0060527483,0.06268033685684204,0.024636344605684285,-0.03586521606445281,-0.0008491419087608306,0.002247529132367005,0.001213242523528969,-0.004166012,0.0,0.00369675,0.016952515
0.0,0.0,0.0,0.10036642,-0.0060221856,0.99493235,0.9949506,0.00060749264,-0.10036458,-5.820766e-11,-0.9999817,-0.0060527483,0.041132521915435705,-0.016065083616971967,-0.007134796142578281,-0.0006392335896398478,0.00215596606862031,0.0011715023301984327,-0.004166012,0.0,0.00369675,0.016960144
0.0,0.0,0.0,0.10036642,-0.0060221856,0.99493235,0.9949506,0.00060749264,-0.10036458,-5.820766e-11,-0.9999817,-0.0060527483,0.09619916009902951,0.012665336304903033,0.04074923706054712,-0.00015504162119650105,0.0022085129198017237,0.001369391003850176,-0.004166012,0.0,0.00369675,0.017448425
0.0,0.0,0.0,0.10036642,-0.0060221856,0.99493235,0.9949506,0.00060749264,-0.10036458,-5.820766e-11,-0.9999817,-0.0060527483,-0.08815436773300178,0.06773197448849679,0.05272024536132669,-0.0005950382517555274,0.002536130227645199,0.0016261452756375584,-0.004166012,0.0,0.00369675,0.01700592
0.0,0.0,0.0,0.10036642,-0.0060221856,0.99493235,0.9949506,0.00060749264,-0.10036458,-5.820766e-11,-0.9999817,-0.0060527483,0.041132521915435705,-0.04240130187869072,-0.052624627685547765,-0.0003864004509195713,0.0023114430671135194,0.001354891410831632,-0.004166012,0.0,0.00369675,0.016952515
0.0,0.0,0.0,0.10036642,-0.0060221856,0.99493235,0.9949506,0.00060749264,-0.10036458,-5.820766e-11,-0.9999817,-0.0060527483,-0.02590512456893923,-0.02324768859744071,0.050326043701170775,-0.0005139940715096695,0.002183647408790748,0.0015997471722833277,-0.004166012,0.0,0.00369675,0.016937256
0.0,0.0,0.0,0.10036642,-0.0060221856,0.99493235,0.9949506,0.00060749264,-0.10036458,-5.820766e-11,-0.9999817,-0.0060527483,0.03873832025527957,0.005482731324434283,0.038355035400389426,-0.0003177324998757233,0.002200142828368966,0.0017835236134238581,-0.004166012,0.0,0.00369675,0.016929626
0.0,0.0,0.0,0.10036642,-0.0060221856,0.99493235,0.9949506,0.00060749264,-0.10036458,-5.820766e-11,-0.9999817,-0.0060527483,-0.0690007544517518,-0.05197810851931571,0.0024420104980471535,-0.0006611476096351037,0.0019292515716305425,0.0017868160478469745,-0.004166012,0.0,0.00369675,0.016983032
0.0,0.0,0.0,0.10036642,-0.0060221856,0.99493235,0.9949506,0.00060749264,-0.10036458,-5.820766e-11,-0.9999817,-0.0060527483,0.04831512689590456,-0.01367088195681572,-0.04783622436523416,-0.0004162662371074054,0.0018512509039883113,0.0015387008457815687,-0.004166012,0.0,0.00369675,0.016990662
0.0,0.0,0.0,0.10036642,-0.0060221856,0.99493235,0.9949506,0.00060749264,-0.10036458,-5.820766e-11,-0.9999817,-0.0060527483,0.03873832025527957,0.019847941285371783,-0.004740594482422367,-0.00022049330464547054,0.0019412343558952287,0.0015073043691405492,-0.004166012,0.0,0.00369675,0.016914368
0.0,0.0,0.0,0.10036642,-0.0060221856,0.99493235,0.9949506,0.00060749264,-0.10036458,-5.820766e-11,-0.9999817,-0.0060527483,-0.04027033452987672,0.01505953796505928,0.012018817138670812,-0.0004207425107716268,0.0020068258739410487,0.0015598619329882004,-0.004166012,0.0,0.00369675,0.016944885
0.0,0.0,0.0,0.10036642,-0.0060221856,0.99493235,0.9949506,0.00060749264,-0.10036458,-5.820766e-11,-0.9999817,-0.0060527483,-0.023510922908782983,-0.03521869689822196,0.03596083374023351,-0.0005361934127616836,0.0018206982600802335,0.001731866792024427,-0.004166012,0.0,0.00369675,0.016990662
0.0,0.0,0.0,0.10036642,-0.0060221856,0.99493235,0.9949506,0.00060749264,-0.10036458,-5.820766e-11,-0.9999817,-0.0060527483,-0.013934116268157992,-0.004094075316190715,-0.021500006103515545,-0.0006031830270386651,0.001791124392198879,0.001615707427546727,-0.004166012,0.0,0.00369675,0.016998291
0.0,0.0,0.0,0.10036642,-0.0060221856,0.99493235,0.9949506,0.00060749264,-0.10036458,-5.820766e-11,-0.9999817,-0.0060527483,0.03634411859512321,-0.03521869689822196,0.026384027099608076,-0.00041844651892785576,0.0016060752857467748,0.0017395490259070336,-0.004166012,0.0,0.00369675,0.016944885
0.0,0.0,0.0,0.10036642,-0.0060221856,0.99493235,0.9949506,0.00060749264,-0.10036458,-5.820766e-11,-0.9999817,-0.0060527483,-0.02590512456893923,-0.016065083616971967,0.007230413818358983,-0.0005458799091779126,0.001517719491233181,0.0017670033498692935,-0.004166012,0.0,0.00369675,0.016914368
0.0,0.0,0.0,0.10036642,-0.0060221856,0.99493235,0.9949506,0.00060749264,-0.10036458,-5.820766e-11,-0.9999817,-0.0060527483,0.017190505313873228,0.04618415954709053,0.021595623779296247,-0.0004571979830626569,0.0017410516915124677,0.0018661464520164284,-0.004166012,0.0,0.00369675,0.016944885
0.0,0.0,0.0,0.10036642,-0.0060221856,0.99493235,0.9949506,0.00060749264,-0.10036458,-5.820766e-11,-0.9999817,-0.0060527483,0.02676731195449822,0.012665336304903033,0.038355035400389426,-0.0003210754333748525,0.0017956731145794206,0.0020485908967582934,-0.004166012,0.0,0.00369675,0.016914368
0.0,0.0,0.0,0.10036642,-0.0060221856,0.99493235,0.9949506,0.00060749264,-0.10036458,-5.820766e-11,-0.9999817,-0.0060527483,0.021978908634185723,-0.020853486937284463,0.009624615478514897,-0.00020957551303704962,0.0016824273143201012,0.002086471019667076,-0.004166012,0.0,0.00369675,0.016975403
0.0,0.0,0.0,0.10036642,-0.0060221856,0.99493235,0.9949506,0.00060749264,-0.10036458,-5.820766e-11,-0.9999817,-0.0060527483,-0.006751511287689249,-0.011276680296659472,-0.028682611083985066,-0.00024228519191031063,0.0016176317762652032,0.0019326256091488155,-0.004166012,0.0,0.00369675,0.016914368
0.0,0.0,0.0,0.10036642,-0.0060221856,0.99493235,0.9949506,0.00060749264,-0.10036458,-5.820766e-11,-0.9999817,-0.0060527483,-0.01632831792831424,0.003088529664278035,0.06469125366210804,-0.00032271535559233027,0.0016249862657052672,0.0022464187494136115,-0.004166012,0.0,0.00369675,0.016990662
0.0,0.0,0.0,0.10036642,-0.0060221856,0.99493235,0.9949506,0.00060749264,-0.10036458,-5.820766e-11,-0.9999817,-0.0060527483,0.02437311029434197,0.010271134644746785,0.007230413818358983,-0.0001992362273426588,0.0016682170076004748,0.0022713387247583383,-0.004166012,0.0,0.00369675,0.016967773
0.0,0.0,0.0,0.10036642,-0.0060221856,0.99493235,0.9949506,0.00060749264,-0.10036458,-5.820766e-11,-0.9999817,-0.0060527483,0.019584706974029475,0.04139575622677803,0.038355035400389426,-0.00010031651133579813,0.0018668547036963627,0.002451757208136494,-0.004166012,0.0,0.00369675,0.016967773
0.0,0.0,0.0,0.10036642,-0.0060221856,0.99493235,0.9949506,0.00060749264,-0.10036458,-5.820766e-11,-0.9999817,-0.0060527483,-0.011539914608001745,0.024636344605684285,-0.016711602783203716,-0.00015751450181912787,0.0019807021532063022,0.002355940408179793,-0.004166012,0.0,0.00369675,0.016937256
0.0,0.0,0.0,0.10036642,-0.0060221856,0.99493235,0.9949506,0.00060749264,-0.10036458,-5.820766e-11,-0.9999817,-0.0060527483,0.03394991693496707,0.010271134644746785,-0.016711602783203716,1.3022655364803128e-05,0.002022154315664005,0.0022606026922228754,-0.004166012,0.0,0.00369675,0.017074585
0.0,0.0,0.0,0.10036642,-0.0060221856,0.99493235,0.9949506,0.00060749264,-0.10036458,-5.820766e-11,-0.9999817,-0.0060527483,-0.07857756109237679,0.019847941285371783,0.07187385864257756,-0.00037993026337390483,0.0021112832505125437,0.002608668971974649,-0.004166012,0.0,0.00369675,0.016998291
0.0,0.0,0.0,0.10036642,-0.0060221856,0.99493235,0.9949506,0.00060749264,-0.10036458,-5.820766e-11,-0.9999817,-0.0060527483,0.09619916009902951,-0.01367088195681572,-0.052624627685547765,0.00010296518843811223,0.002032372424475902,0.0023325024886870368,-0.004166012,0.0,0.00369675,0.017471313
0.0,0.0,0.0,0.10036642,-0.0060221856,0.99493235,0.9949506,0.00060749264,-0.10036458,-5.820766e-11,-0.9999817,-0.0060527483,0.060286135196685686,0.03181894958615303,0.004836212158203068,0.0004038810384793501,0.002181305310284288,0.0023450210370346168,-0.004166012,0.0,0.00369675,0.016983032
0.0,0.0,0.0,0.10036642,-0.0060221856,0.99493235,0.9949506,0.00060749264,-0.10036458,-5.820766e-11,-0.9999817,-0.0060527483,-0.07139495611190805,0.04378995788693428,-0.05980723266601551,4.48868527274131e-05,0.0023893485731675376,0.002034259768519366,-0.004166012,0.0,0.00369675,0.017089844
0.0,0.0,0.0,0.10036642,-0.0060221856,0.99493235,0.9949506,0.00060749264,-0.10036458,-5.820766e-11,-0.9999817,-0.0060527483,0.0459209252357482,0.039001554566621785,0.13412310180664022,0.00027426704464251703,0.002572409603134809,0.0026947039787099704,-0.004166012,0.0,0.005970474,0.016952515
0.0,0.0,0.0,0.10036642,-0.0060221856,0.99493235,0.9949506,0.00060749264,-0.10036458,-5.820766e-11,-0.9999817,-0.0060527483,-0.08336596441268929,0.012665336304903033,-0.0382594177246105,-0.00014393411264414203,0.00262287423664365,0.002489933370193368,-0.004166012,0.0,0.005970474,0.01700592
0.0,0.0,0.0,0.10036642,-0.0060221856,0.99493235,0.9949506,0.00060749264,-0.10036458,-5.820766e-11,-0.9999817,-0.0060527483,0.05549773187637319,-0.03761289855837821,-0.04304782104492233,0.00013427421730094464,0.0024216953726685407,0.0022622445981177897,-0.004166012,0.0,0.005970474,0.016960144
0.0,0.0,0.0,0.10036642,-0.0060221856,0.99493235,0.9949506,0.00060749264,-0.10036458,-5.820766e-11,-0.9999817,-0.0060527483,-0.013934116268157992,0.05815516784787178,0.09821007690429617,6.393226487364995e-05,0.002700362735044557,0.0027419837596486816,-0.004166012,0.0,0.005970474,0.017036438
0.0,0.0,0.0,0.10036642,-0.0060221856,0.99493235,0.9949506,0.00060749264,-0.10036458,-5.820766e-11,-0.9999817,-0.0060527483,0.031555715274810714,0.019847941285371783,-0.033471014404296895,0.00022139117992333527,0.002786100627796193,0.0025609187688289538,-0.004166012,0.0,0.005970474,0.016906738
0.0,0.0,0.0,0.10036642,-0.0060221856,0.99493235,0.9949506,0.00060749264,-0.10036458,-5.820766e-11,-0.9999817,-0.0060527483,0.007613698673248237,0.003088529664278035,0.04793184204101486,0.00025835271738995977,0.002787612772978602,0.0027877733851898834,-0.004166012,0.0,0.005970474,0.01688385
0.0,0.0,0.0,0.10036642,-0.0060221856,0.99493235,0.9949506,0.00060749264,-0.10036458,-5.820766e-11,-0.9999817,-0.0060527483,0.01479630365371698,0.010271134644746785,0.009624615478514897,0.00033104247207159485,0.002825030382337443,0.0028219575956565084,-0.004166012,0.0,0.005970474,0.016937256
0.0,0.0,0.0,0.10036642,-0.0060221856,0.99493235,0.9949506,0.00060749264,-0.10036458,-5.820766e-11,-0.9999817,-0.0060527483,0.012402101993560732,0.02224214294552803,-0.03107681274414098,0.00039139776967904053,0.002922115945153396,0.002652463743957521,-0.004166012,0.0,0.005970474,0.01702118
0.0,0.0,0.0,0.10036642,-0.0060221856,0.99493235,0.9949506,0.00060749264,-0.10036458,-5.820766e-11,-0.9999817,-0.0060527483,-0.03787613286972047,-0.016065083616971967,-0.028682611083985066,0.00020006011648204298,0.0028271799473427693,0.002495788369817808,-0.004166012,0.0,0.005970474,0.016914368
0.0,0.0,0.0,0.10036642,-0.0060221856,0.99493235,0.9949506,0.00060749264,-0.10036458,-5.820766e-11,-0.9999817,-0.0060527483,0.05549773187637319,-0.004094075316190715,-0.033471014404296895,0.0004765484752814987,0.002792573671025102,0.0023159543559472346,-0.004166012,0.0,0.005970474,0.01689148
0.0,0.0,0.0,0.10036642,-0.0060221856,0.99493235,0.9949506,0.00060749264,-0.10036458,-5.820766e-11,-0.9999817,-0.0060527483,0.029161513614654466,-0.004094075316190715,-0.040653619384766415,0.0006199733009783636,0.0027581404260890226,0.002101106487243666,-0.004166012,0.0,0.005970474,0.016937256
0.0,0.0,0.0,0.10036642,-0.0060221856,0.99493235,0.9949506,0.00060749264,-0.10036458,-5.820766e-11,-0.9999817,-0.0060527483,-0.0019631079673767537,0.019847941285371783,0.04314343872070303,0.0006070578946365879,0.0028435894303854366,0.0023063181484109627,-0.004166012,0.0,0.005970474,0.01702118
0.0,0.0,0.0,0.10036642,-0.0060221856,0.99493235,0.9949506,0.00060749264,-0.10036458,-5.820766e-11,-0.9999817,-0.0060527483,0.05549773187637319,-0.016065083616971967,-0.002346392822266452,0.000881511264545271,0.0027490460651486497,0.002283054593557576,-0.004166012,0.0,0.005970474,0.017028809
0.0,0.0,0.0,0.10036642,-0.0060221856,0.99493235,0.9949506,0.00060749264,-0.10036458,-5.820766e-11,-0.9999817,-0.0060527483,0.00043109369277949394,0.06054936950802803,4.780883788946255e-05,0.000879259176686442,0.0030380476823630466,0.002271878364779235,-0.004166012,0.0,0.005970474,0.016952515
0.0,0.0,0.0,0.10036642,-0.0060221856,0.99493235,0.9949506,0.00060749264,-0.10036458,-5.820766e-11,-0.9999817,-0.0060527483,-0.023510922908782983,-0.047189705199003215,-0.023894207763673236,0.0007573082662590949,0.002786908917956215,0.0021410479341369727,-0.004166012,0.0,0.005970474,0.016929626
0.0,0.0,0.0,0.10036642,-0.0060221856,0.99493235,0.9949506,0.00060749264,-0.10036458,-5.820766e-11,-0.9999817,-0.0060527483,0.03394991693496707,0.03660735290646553,0.057508648681640295,0.0009232713096026348,0.002956011137898762,0.0024178859378744893,-0.004166012,0.0,0.005970474,0.016967773
0.0,0.0,0.0,0.10036642,-0.0060221856,0.99493235,0.9949506,0.00060749264,-0.10036458,-5.820766e-11,-0.9999817,-0.0060527483,-0.054635544490814314,-0.025641890257596958,0.09821007690429617,0.00064547723060055,0.0028130216309212837,0.0028968468927065977,-0.004166012,0.0,0.005970474,0.01701355
0.0,0.0,0.0,0.10036642,-0.0060221856,0.99493235,0.9949506,0.00060749264,-0.10036458,-5.820766e-11,-0.9999817,-0.0060527483,0.07225714349746704,-0.0016998736560344674,-0.03586521606445281,0.0010035355619348826,0.002790457154486505,0.0027030365779208004,-0.004166012,0.0,0.005970474,0.016944885
0.0,0.0,0.0,0.10036642,-0.0060221856,0.99493235,0.9949506,0.00060749264,-0.10036458,-5.820766e-11,-0.9999817,-0.0060527483,-0.08097176275253304,0.04378995788693428,0.026384027099608076,0.0005936590703625429,0.0029954546581487437,0.002821441530529237,-0.004166012,0.0,0.005970474,0.016960144
0.0,0.0,0.0,0.10036642,-0.0060221856,0.99493235,0.9949506,0.00060749264,-0.10036458,-5.820766e-11,-0.9999817,-0.0060527483,0.060286135196685686,0.003088529664278035,-0.09811445922851547,0.0008921214509941587,0.0029959200331793902,0.0023167620267340134,-0.004166012,0.0,0.005970474,0.016990662
0.0,0.0,0.0,0.10036642,-0.0060221856,0.99493235,0.9949506,0.00060749264,-0.10036458,-5.820766e-11,-0.9999817,-0.0060527483,-0.08336596441268929,-0.006488276976346963,0.04074923706054712,0.0004708310216757415,0.0029484990481317584,0.002508924401903079,-0.004166012,0.0,0.005970474,0.017059326
0.0,0.0,0.0,0.10036642,-0.0060221856,0.99493235,0.9949506,0.00060749264,-0.10036458,-5.820766e-11,-0.9999817,-0.0060527483,-0.05942394781112681,-0.01367088195681572,-0.02628840942382915,0.00017135712751172873,0.002865402143107021,0.002364937732774418,-0.004166012,0.0,0.005970474,0.017471313
0.0,0.0,0.0,0.10036642,-0.0060221856,0.99493235,0.9949506,0.00060749264,-0.10036458,-5.820766e-11,-0.9999817,-0.0060527483,0.05549773187637319,-0.018459285277128215,-0.016711602783203716,0.00044798900125603606,0.002758778706005845,0.0022695550301945274,-0.004166012,0.0,0.005970474,0.017074585
0.0,0.0,0.0,0.10036642,-0.0060221856,0.99493235,0.9949506,0.00060749264,-0.10036458,-5.820766e-11,-0.9999817,-0.0060527483,-0.07618335943222054,-0.02324768859744071,-0.04304782104492233,6.483225908865317e-05,0.002628746369488612,0.0020429681498189433,-0.004166012,0.0,0.005970474,0.016975403
0.0,0.0,0.0,0.10036642,-0.0060221856,0.99493235,0.9949506,0.00060749264,-0.10036458,-5.820766e-11,-0.9999817,-0.0060527483,0.060286135196685686,-0.0016998736560344674,-0.016711602783203716,0.00036593877377663836,0.0026071032693609966,0.0019491952951538301,-0.004166012,0.0,0.005970474,0.016944885
0.0,0.0,0.0,0.10036642,-0.0060221856,0.99493235,0.9949506,0.00060749264,-0.10036458,-5.820766e-11,-0.9999817,-0.0060527483,-0.021116721248626735,0.04378995788693428,0.007230413818358983,0.0002585254736646215,0.002813017542448863,0.0019756013877698557,-0.004166012,0.0,0.005970474,0.016929626
0.0,0.0,0.0,0.10036642,-0.0060221856,0.99493235,0.9949506,0.00060749264,-0.10036458,-5.820766e-11,-0.9999817,-0.0060527483,0.060286135196685686,-0.00888247863650321,-0.02628840942382915,0.0005586635222797269,0.0027545400615541023,0.0018342813337118608,-0.004166012,0.0,0.005970474,0.017059326
0.0,0.0,0.0,0.10036642,-0.0060221856,0.99493235,0.9949506,0.00060749264,-0.10036458,-5.820766e-11,-0.9999817,-0.0060527483,-0.05702974615097056,0.04139575622677803,0.016807220458984418,0.00027072147391347544,0.002947746142380222,0.0019091460293382235,-0.004166012,0.0,0.005970474,0.016990662
0.0,0.0,0.0,0.10036642,-0.0060221856,0.99493235,0.9949506,0.00060749264,-0.10036458,-5.820766e-11,-0.9999817,-0.0060527483,-0.013934116268157992,-0.04000710021853446,-0.007134796142578281,0.00019969728520311808,0.0027329719105756486,0.001863926318478641,-0.004166012,0.0,0.005970474,0.016929626
0.0,0.0,0.0,0.10036642,-0.0060221856,0.99493235,0.9949506,0.00060749264,-0.10036458,-5.820766e-11,-0.9999817,-0.0060527483,-0.054635544490814314,-0.02324768859744071,-0.07177824096679686,-7.447892367696911e-05,0.002603068608035567,0.0014957154820522634,-0.004166012,0.0,0.005970474,0.01689148
0.0,0.0,0.0,0.10036642,-0.0060221856,0.99493235,0.9949506,0.00060749264,-0.10036458,-5.820766e-11,-0.9999817,-0.0060527483,-0.05942394781112681,-0.0016998736560344674,0.08863327026367074,-0.0003712262681142183,0.0025815538967152167,0.0019314032559603557,-0.004166012,0.0,0.005970474,0.017028809
0.0,0.0,0.0,0.10036642,-0.0060221856,0.99493235,0.9949506,0.00060749264,-0.10036458,-5.820766e-11,-0.9999817,-0.0060527483,0.01479630365371698,-0.05676651183962822,-0.016711602783203716,-0.0002953886185050623,0.0022848135680334993,0.0018381882257645353,-0.004166012,0.0,0.005970474,0.017028809
0.0,0.0,0.0,0.10036642,-0.0060221856,0.99493235,0.9949506,0.00060749264,-0.10036458,-5.820766e-11,-0.9999817,-0.0060527483,-0.030693527889251726,-0.01367088195681572,0.016807220458984418,-0.00044737931485879564,0.002205035090409253,0.0019130333869306346,-0.004166012,0.0,0.005970474,0.01687622
0.0,0.0,0.0,0.10036642,-0.0060221856,0.99493235,0.9949506,0.00060749264,-0.10036458,-5.820766e-11,-0.9999817,-0.0060527483,0.06746874017715454,-0.032824495238065715,0.014413018798826727,-0.00010779871739872895,0.0020298874387668785,0.001975533313990115,-0.004166012,0.0,0.005970474,0.016914368
0.0,0.0,0.0,0.10036642,-0.0060221856,0.99493235,0.9949506,0.00060749264,-0.10036458,-5.820766e-11,-0.9999817,-0.0060527483,-0.01632831792831424,0.06533777282834052,-0.052624627685547765,-0.0001889013134533065,0.0023464268657147464,0.0017025325089924258,-0.004166012,0.0,0.005970474,0.016937256
0.0,0.0,0.0,0.10036642,-0.0060221856,0.99493235,0.9949506,0.00060749264,-0.10036458,-5.820766e-11,-0.9999817,-0.0060527483,0.11295857172012314,0.012665336304903033,-0.033471014404296895,0.00037683605171457573,0.0023980214129106876,0.0015266647744259791,-0.0022407386,0.0,0.005970474,0.017044067
0.0,0.0,0.0,0.10036642,-0.0060221856,0.99493235,0.9949506,0.00060749264,-0.10036458,-5.820766e-11,-0.9999817,-0.0060527483,-0.021116721248626735,-0.05437231017947196,4.780883788946255e-05,0.00026936826521286916,0.0021141697549487744,0.0015192704947432965,-0.0022407386,0.0,0.005970474,0.016899109
0.0,0.0,0.0,0.10036642,-0.0060221856,0.99493235,0.9949506,0.00060749264,-0.10036458,-5.820766e-11,-0.9999817,-0.0060527483,0.010007900333404485,0.024636344605684285,4.780883788946255e-05,0.0003180609255538272,0.002226780629202452,0.0015119131864590272,-0.0022407386,0.0,0.005970474,0.016967773
0.0,0.0,0.0,0.10036642,-0.0060221856,0.99493235,0.9949506,0.00060749264,-0.10036458,-5.820766e-11,-0.9999817,-0.0060527483,-0.054635544490814314,-0.03521869689822196,-0.023894207763673236,4.3292898471986485e-05,0.0020395532415653297,0.0013848825817083658,-0.0022407386,0.0,0.005970474,0.016990662
0.0,0.0,0.0,0.10036642,-0.0060221856,0.99493235,0.9949506,0.00060749264,-0.10036458,-5.820766e-11,-0.9999817,-0.0060527483,-0.009145712947845497,0.00787693298459053,-0.009528997802734196,-2.652130759600929e-06,0.0020687401402804556,0.0013303131797861528,-0.0022407386,0.0,0.005970474,0.01700592
0.0,0.0,0.0,0.10036642,-0.0060221856,0.99493235,0.9949506,0.00060749264,-0.10036458,-5.820766e-11,-0.9999817,-0.0060527483,-0.09773117437362677,-0.03521869689822196,-0.021500006103515545,-0.0004912947419739368,0.0018823029550879436,0.0012161615833696444,-0.0022407386,0.0,0.005970474,0.01689148
0.0,0.0,0.0,0.10036642,-0.0060221856,0.99493235,0.9949506,0.00060749264,-0.10036458,-5.820766e-11,-0.9999817,-0.0060527483,0.04352672357559206,0.019847941285371783,4.780883788946255e-05,-0.0002712046503861068,0.0019721311467393626,0.0012103198196422432,-0.0022407386,0.0,0.005970474,0.01687622
0.0,0.0,0.0,0.10036642,-0.0060221856,0.99493235,0.9949506,0.00060749264,-0.10036458,-5.820766e-11,-0.9999817,-0.0060527483,-0.01632831792831424,0.05336676452755928,0.028778228759765767,-0.00035149021677574746,0.002229104313643462,0.001348159364342861,-0.0022407386,0.0,0.005970474,0.016899109
0.0,0.0,0.0,0.10036642,-0.0060221856,0.99493235,0.9949506,0.00060749264,-0.10036458,-5.820766e-11,-0.9999817,-0.0060527483,0.019584706974029475,-0.0016998736560344674,-0.06698983764648503,-0.0002518092308217213,0.0022094594237950724,0.0010064693792887214,-0.0022407386,0.0,0.005970474,0.016952515
0.0,0.0,0.0,0.10036642,-0.0060221856,0.99493235,0.9949506,0.00060749264,-0.10036458,-5.820766e-11,-0.9999817,-0.0060527483,0.07225714349746704,0.02224214294552803,-0.07417244262695455,0.00011073553281972252,0.002309622841403737,0.0006305748192575051,-0.0022407386,0.0,0.005970474,0.017456055
0.0,0.0,0.0,0.10036642,-0.0060221856,0.99493235,0.9949506,0.00060749264,-0.10036458,-5.820766e-11,-0.9999817,-0.0060527483,-0.03548193120956422,0.03181894958615303,-0.02628840942382915,-6.72278008921972e-05,0.0024571694751274837,0.0004959798980420718,-0.0022407386,0.0,0.005970474,0.016952515
0.0,0.0,0.0,0.10036642,-0.0060221856,0.99493235,0.9949506,0.00060749264,-0.10036458,-5.820766e-11,-0.9999817,-0.0060527483,0.07225714349746704,0.04618415954709053,0.05511444702148438,0.000294394055599599,0.002675804425487299,0.0007690722336592833,-0.0022407386,0.0,0.005970474,0.01700592
0.0,0.0,0.0,0.10036642,-0.0060221856,0.99493235,0.9949506,0.00060749264,-0.10036458,-5.820766e-11,-0.9999817,-0.0060527483,-0.09533697271347052,-0.03761289855837821,-0.07417244262695455,-0.0001837627782457516,0.0024743609105679714,0.0003943646593562142,-0.0022407386,0.0,0.005970474,0.016960144
0.0,0.0,0.0,0.10036642,-0.0060221856,0.99493235,0.9949506,0.00060749264,-0.10036458,-5.820766e-11,-0.9999817,-0.0060527483,0.04352672357559206,0.08449138610959053,0.0024420104980471535,3.4789653523437455e-05,0.0028844460365630843,0.00040460288854966885,-0.0022407386,0.0,0.005970474,0.01689148
0.0,0.0,0.0,0.10036642,-0.0060221856,0.99493235,0.9949506,0.00060749264,-0.10036458,-5.820766e-11,-0.9999817,-0.0060527483,0.0459209252357482,-0.02803609191775322,0.07666226196288939,0.0002642203314345613,0.0027298433467915027,0.0007858911839213674,-0.0022407386,0.0,0.005970474,0.016944885
0.0,0.0,0.0,0.10036642,-0.0060221856,0.99493235,0.9949506,0.00060749264,-0.10036458,-5.820766e-11,-0.9999817,-0.0060527483,-0.0019631079673767537,0.003088529664278035,0.05511444702148438,0.0002530836899405047,0.002731636778378935,0.0010575339631091825,-0.0022407386,0.0,0.005970474,0.016906738
0.0,0.0,0.0,0.10036642,-0.0060221856,0.99493235,0.9949506,0.00060749264,-0.10036458,-5.820766e-11,-0.9999817,-0.0060527483,-0.08815436773300178,0.012665336304903033,0.004836212158203068,-0.00018895356717420675,0.0027813052760115556,0.0010764273540846518,-0.0022407386,0.0,0.005970474,0.01700592
0.0,0.0,0.0,0.10036642,-0.0060221856,0.99493235,0.9949506,0.00060749264,-0.10036458,-5.820766e-11,-0.9999817,-0.0060527483,0.06986294183731068,0.003088529664278035,-0.016711602783203716,0.00016130590984821767,0.002782841397952888,0.00098748720339821,-0.0022407386,0.0,0.005970474,0.01689148
0.0,0.0,0.0,0.10036642,-0.0060221856,0.99493235,0.9949506,0.00060749264,-0.10036458,-5.820766e-11,-0.9999817,-0.0060527483,-0.030693527889251726,-0.025641890257596958,0.033566632080077596,7.031740852717967e-06,0.0026407177396751387,0.0011503829277816069,-0.0022407386,0.0,0.005970474,0.01687622
0.0,0.0,0.0,0.10036642,-0.0060221856,0.99493235,0.9949506,0.00060749264,-0.10036458,-5.820766e-11,-0.9999817,-0.0060527483,0.06746874017715454,0.02942474792599678,0.18200713500976562,0.0003443402830342271,0.0027746378906067467,0.002054666688191527,-0.0022407386,0.0,0.009044844,0.01689148
0.0,0.0,0.0,0.10036642,-0.0060221856,0.99493235,0.9949506,0.00060749264,-0.10036458,-5.820766e-11,-0.9999817,-0.0060527483,-0.0737891577720643,0.04378995788693428,-0.023894207763673236,-2.6327207241265578e-05,0.002979714490588384,0.0019249223159322033,-0.0022407386,0.0,0.009044844,0.016960144
0.0,0.0,0.0,0.10036642,-0.0060221856,0.99493235,0.9949506,0.00060749264,-0.10036458,-5.820766e-11,-0.9999817,-0.0060527483,0.03873832025527957,-0.01367088195681572,-0.040653619384766415,0.0001674960300713386,0.0028964615083513635,0.00171202960742871,-0.0022407386,0.0,0.009044844,0.016967773
0.0,0.0,0.0,0.10036642,-0.0060221856,0.99493235,0.9949506,0.00060749264,-0.10036458,-5.820766e-11,-0.9999817,-0.0060527483,-0.03548193120956422,0.024636344605684285,-0.10529706420898499,-1.0751106126839202e-05,0.003005160923838028,0.0011769841383466415,-0.0022407386,0.0,0.0072646136,0.016906738
0.0,0.0,0.0,0.10036642,-0.0060221856,0.99493235,0.9949506,0.00060749264,-0.10036458,-5.820766e-11,-0.9999817,-0.0060527483,-0.0043573096275330014,0.17786525085568428,-0.040653619384766415,-3.248389873387001e-05,0.0038794613734972594,0.0009678311207310762,-0.0022407386,0.0030111922,0.0072646136,0.016929626
0.0,0.0,0.0,0.10036642,-0.0060221856,0.99493235,0.9949506,0.00060749264,-0.10036458,-5.820766e-11,-0.9999817,-0.0060527483,-0.07618335943222054,0.03181894958615303,0.038355035400389426,-0.0004132382764013034,0.004019158814560538,0.001154767142129368,-0.0022407386,0.0030111922,0.0072646136,0.016960144
0.0,0.0,0.0,0.10036642,-0.0060221856,0.99493235,0.9949506,0.00060749264,-0.10036458,-5.820766e-11,-0.9999817,-0.0060527483,-0.054635544490814314,-0.3057634844958782,0.04074923706054712,-0.0006843498074733684,0.0024702455980083445,0.001352739491721457,-0.0022407386,-0.0021559382,0.0072646136,0.016899109
0.0,0.0,-0.084870964,0.10037506,-0.0058781058,0.99493235,0.9949486,0.0020357806,-0.10036448,0.0014355109,-0.9999806,-0.006052742,-0.02359436941146853,0.03521600168347359,-0.0382594177246105,-0.0007988999054933443,0.0026339743784356707,0.0011546787056397972,-0.0022407386,-0.0021559382,0.0072646136,0.016914368
0.0,0.0,-0.059157338,0.100380935,-0.0057778507,0.99493235,0.9949461,0.0030295374,-0.10036443,0.002434294,-0.9999787,-0.006052739,0.03620392847061149,0.04621886664032936,-0.016711602783203716,-0.0006138857636128201,0.002851898839745139,0.0010653472981955797,-0.0022407386,-0.0021559382,0.0072646136,0.01688385
0.0,0.0,-0.09073314,0.10038983,-0.005623241,0.99493235,0.9949403,0.0045619793,-0.10036431,0.003974488,-0.9999738,-0.006052732,0.014570223236083923,-0.15399291162490844,-0.007134796142578281,-0.0005379652186143363,0.002067674787421871,0.0010243465809917102,-0.0022407386,-0.00477003,0.0072646136,0.016975403
0.0,0.0,-0.07021553,0.10039654,-0.005503583,0.99493235,0.99493426,0.005747882,-0.10036425,0.00516639,-0.99996835,-0.006052728,0.10069675235748288,0.486497615301609,0.04074923706054712,-3.179163073385022e-05,0.004489824489992807,0.0012229710333894871,-0.00053137064,0.0034884631,0.0072646136,0.016975403
0.0,0.0,-0.05569333,0.100401714,-0.0054091355,0.99493235,0.99492836,0.0066838562,-0.10036421,0.0061071008,-0.9999631,-0.0060527255,-0.22735888338088994,1.1176547944843769,-0.002346392822266452,-0.0011684270894846307,0.010055649339964726,0.0012051242141112074,-0.0043717986,0.022367306,0.0072646136,0.01689148
0.0,0.0,0.0,0.100401714,-0.0054091355,0.99493235,0.99492836,0.0066838562,-0.10036421,0.0061071008,-0.9999631,-0.0060527255,-0.26806031160354615,0.20546396196484565,0.16764192504882836,-0.0025028865120549386,0.011032690903089133,0.002037308218284793,-0.008899733,0.025837896,0.010096334,0.01689148
0.0,0.0,0.0,0.100401714,-0.0054091355,0.99493235,0.99492836,0.0066838562,-0.10036421,0.0061071008,-0.9999631,-0.0060527255,0.16529018888473512,-0.2997125883281231,0.06947965698242164,-0.001663921135070988,0.009478964506933071,0.002374519962105477,-0.006003069,0.020585518,0.010096334,0.01752472
0.0,0.0,0.0,0.100401714,-0.0054091355,0.99493235,0.99492836,0.0066838562,-0.10036421,0.0061071008,-0.9999631,-0.0060527255,0.18204960050582875,0.061811862355470655,0.038355035400389426,-0.0007453535268664893,0.00974062899617576,0.0025544225392968973,-0.002907148,0.020585518,0.010096334,0.01700592
0.0,0.0,0.0,0.100401714,-0.0054091355,0.99493235,0.99492836,0.0066838562,-0.10036421,0.0061071008,-0.9999631,-0.0060527255,-0.06215896883010874,0.36826967485547063,0.19158394165038928,-0.0010524216033827006,0.011533274225472234,0.0034995701348523593,-0.002907148,0.026825806,0.013342702,0.016944885
0.0,0.060040656,-0.051030234,0.09939456,-0.005322354,0.99503386,0.9950238,0.0075437785,-0.09935236,0.006977534,-0.99995744,-0.0060465126,-0.07398085546493538,0.04421441687941551,-0.09191223144531335,-0.0014170637726904638,0.01169667993874195,0.0030225111269515307,-0.002907148,0.026825806,0.013342702,0.016937256
0.0,0.070033,-0.05849118,0.09821579,-0.005223572,0.9951515,0.99513334,0.008532627,-0.098168254,0.007978486,-0.99994993,-0.006038206,0.1840050913810729,0.08396192119121551,-0.29655615234375077,-0.0004899529969216469,0.012058006145004317,0.0015246178095980193,0.00021922015,0.026825806,0.008304017,0.016990662
-0.07531296,0.088418916,0.0,0.096725956,-0.006492397,0.99528986,0.9952791,0.008657783,-0.09666765,0.007987519,-0.9999415,-0.0073012146,0.0762878182411193,0.4170377587199211,0.25756253509521443,-0.00010606414073144219,0.014082904907878903,0.002804807396026101,0.00021922015,0.0338861,0.012664454,0.016929626
-0.11741403,0.08015858,0.0,0.09537623,-0.008469002,0.99540526,0.9954092,0.008849755,-0.095300935,0.007997402,-0.999925,-0.009276235,-0.030388219070434652,0.05784162825345993,0.1750457870483384,-0.00025747491537995824,0.014301698524606807,0.0036660122942876626,0.00021922015,0.0338861,0.015625242,0.016914368
-0.14952275,0.0,-0.058890875,0.095384374,-0.010885966,0.995381,0.99539965,0.010079521,-0.09527854,0.008991149,-0.99988997,-0.011799381,-0.0065248209953309155,-0.1654209622263908,0.3021730789184556,-0.000288811645779713,0.01340308522085182,0.005158547627408502,0.00021922015,0.03109442,0.02072478,0.01687622
-0.11248447,0.0,-0.06781737,0.09539672,-0.012671153,0.9953587,0.99538714,0.011403195,-0.095259264,0.010138603,-0.9998547,-0.013702599,0.14897907762527463,0.03617180094718933,-0.00646435852050864,0.0004575278005755587,0.013516928799483506,0.0051004330966689165,0.0027402437,0.03109442,0.02072478,0.016921997
-0.062522754,0.051513854,0.0,0.094528176,-0.013725189,0.99542755,0.99547,0.011504068,-0.09437869,0.010150554,-0.9998397,-0.014752556,-0.06768849163055424,-0.011110413312911988,0.3927026077270508,0.0001167977034199097,0.01339379208892153,0.007038443969820826,0.0027402437,0.03109442,0.027376086,0.016937256
0.0,0.0,-0.0594238,0.09454194,-0.013630434,0.99542755,0.9954579,0.012501916,-0.09437863,0.011152783,-0.99982905,-0.014752548,0.0351292613983154,-0.18440795354843137,0.802111091613769,0.00029186002189438714,0.012404783360734764,0.011013807208040568,0.0027402437,0.027983718,0.04090657,0.016868591
0.061249066,0.0,0.0,0.09454189,-0.012598711,0.9954412,0.9954579,0.012404096,-0.094391584,0.011152777,-0.9998438,-0.013716261,0.0040050570487975,0.004347622001171114,0.5434057052612307,0.00031042600702890273,0.012364497553936945,0.013675766698306517,0.0027402437,0.027983718,0.05010208,0.016921997
0.08789531,0.0,0.05222398,0.09453065,-0.011199147,0.995459,0.9954684,0.0113821365,-0.094410025,0.010267572,-0.99987257,-0.012226429,0.1405831513404845,-0.09296477440595627,0.21522841644287105,0.0010117896336961805,0.011837851194137479,0.014683529947029341,0.0051234816,0.027983718,0.053750742,0.016952515
0.0,0.06616929,0.0,0.093410425,-0.011199139,0.9955647,0.9955739,0.011382128,-0.093289785,0.01028133,-0.99987257,-0.012214875,0.12267055721282949,-0.1647909061670303,0.40095476074218617,0.0016200834715918472,0.01095470740733164,0.016614886101005123,0.0072096074,0.025181297,0.060569346,0.01700592
0.0,0.10760421,0.0,0.09159665,-0.01119912,0.9957332,0.99574226,0.01138211,-0.09147601,0.010303582,-0.99987257,-0.012196145,0.04202359085083007,-0.41139385597705835,0.15511922302246006,0.0018221010084880384,0.008842964590409692,0.0173074077856124,0.0072096074,0.018216552,0.06319546,0.016929626
0.0,0.15743269,0.0,0.08894244,-0.011199081,0.9959739,0.99598247,0.011382069,-0.08882176,0.010336088,-0.99987257,-0.012168683,0.2208837460517883,0.012379457890987405,0.13124730377197125,0.0029174092337045394,0.00886064705691258,0.01787710726554419,0.010949086,0.018216552,0.065417424,0.016929626
0.0,0.19007434,0.0,0.08574139,-0.011199023,0.99625444,0.9962628,0.011382011,-0.085620694,0.010375192,-0.99987257,-0.0121354675,0.0004044941902160426,-0.023534133255481704,0.12374951171874926,0.002904844658487097,0.008698673155350608,0.018406469287810215,0.010949086,0.018216552,0.06750962,0.016906738
0.0,0.20233162,0.0,0.08232065,-0.011198957,0.996543,0.9965509,0.011381945,-0.08219993,0.010416855,-0.99987257,-0.012099848,0.04780313472747799,0.026743475759029398,0.0970208587646475,0.0031293361088320514,0.008788897168369001,0.0187995412351944,0.010949086,0.018216552,0.06750962,0.016967773
-0.07531296,0.20579563,0.05901877,0.07883848,-0.012551124,0.99680835,0.99684197,0.010491365,-0.07871445,0.009460393,-0.99986637,-0.013337839,0.03115163507461538,-0.0320249398112297,-0.07552998199462913,0.003269447603660968,0.008584827983471007,0.01832789361904528,0.010949086,0.018216552,0.06750962,0.016921997
0.0,0.20179869,0.089528725,0.07542281,-0.012670222,0.99707115,0.9971191,0.008984487,-0.075317554,0.007994441,-0.9998796,-0.013305592,0.07850139980316162,-0.16016172803640366,-0.003847457885742145,0.003645607364658471,0.007741095203371634,0.018217016861521343,0.010949086,0.015512406,0.06750962,0.01688385
0.0,0.16929027,0.07047666,0.07256012,-0.0127598345,0.9972824,0.99734014,0.007799032,-0.07246975,0.006843734,-0.99988836,-0.0132827535,-0.1021496891975403,-0.12577753475904463,-0.2572785415649417,0.0031166308818474766,0.007073502053559552,0.016839539069389026,0.0092259655,0.013390716,0.063169695,0.016868591
0.057118896,0.0977451,0.06528064,0.0708881,-0.011871648,0.9974137,0.9974672,0.00662142,-0.070819356,0.0057557737,-0.9999078,-0.012300113,0.06961978054046625,-0.22054585075378413,-0.2657285797119151,0.00344914663014057,0.005935405289522833,0.015426698475482507,0.0092259655,0.009640131,0.058650736,0.01700592
0.0,0.0,0.0,0.0708881,-0.011871648,0.9974137,0.9974672,0.00662142,-0.070819356,0.0057557737,-0.9999078,-0.012300113,-0.04769610080719,-0.017038709640502914,-0.5243023590087894,0.0031934203929539174,0.005820534714872704,0.012728053188061146,0.0092259655,0.009640131,0.04976249,0.016952515
0.0,0.0,0.0,0.0708881,-0.011871648,0.9974137,0.9974672,0.00662142,-0.070819356,0.0057557737,-0.9999078,-0.012300113,0.016947344017028798,0.10027717170715332,-0.6488008453369147,0.003262190011074292,0.006292817899834107,0.009420408695436266,0.0092259655,0.011332431,0.038813185,0.01687622
0.0,0.0,0.0,0.0708881,-0.011871648,0.9974137,0.9974672,0.00662142,-0.070819356,0.0057557737,-0.9999078,-0.012300113,0.002582134056091312,0.14816120491027832,-0.7134442901611333,0.003258789731299377,0.0070021598348863285,0.005806085201153418,0.0092259655,0.013919871,0.02635382,0.017463684
0.0,-0.0532059,0.05222398,0.0717828,-0.011934797,0.9973489,0.99740803,0.005732766,-0.07172465,0.0048537836,-0.99991256,-0.012305333,0.015490017318725569,0.0793391793370247,-0.3249580108642576,0.0033199458692365082,0.00736384493239702,0.004152264720826362,0.0092259655,0.013919871,0.020810254,0.017059326
0.0,-0.114359036,0.05515507,0.07370244,-0.012001803,0.9972081,0.99727213,0.00480142,-0.07365551,0.0038962848,-0.9999166,-0.012314725,-0.007836026573181165,-0.058877456378936766,-0.35232944488525497,0.00326416600702442,0.007032638425840352,0.0023698561727959555,0.0092259655,0.013919871,0.014845448,0.016929626
0.09535626,-0.17044939,0.0,0.076580904,-0.010391182,0.9970092,0.99705535,0.0046824412,-0.07654201,0.003860728,-0.9999352,-0.010711021,-0.0021140082359314416,-0.16062219057083127,-0.22112185516357563,0.003237275135809641,0.006194364280856993,0.0012523976161140978,0.0092259655,0.011199372,0.01110025,0.016937256
0.1497146,-0.21334985,0.0,0.08017639,-0.007867491,0.9967497,0.9967727,0.00448867,-0.08014976,0.0038220803,-0.9999591,-0.008193899,0.1116055374145507,-0.11795537831783293,-0.01989686126709067,0.0037791164472033463,0.005573615567863543,0.001146651321698074,0.011112851,0.009205131,0.01110025,0.016906738
0.10921232,-0.19722888,0.0,0.08351294,-0.00601955,0.9964886,0.99649876,0.004340054,-0.08349485,0.0037946405,-0.99997264,-0.0063528377,-0.0044119439125061,-0.1334064161479473,-0.24721870574951232,0.0037381611454047987,0.004878715409284489,-9.517546365797797e-05,0.011112851,0.006940503,0.006903613,0.016975403
0.0,-0.16285521,0.0,0.086256295,-0.006019527,0.9962548,0.99626505,0.0043400372,-0.086238235,0.003777149,-0.99997264,-0.0063632857,0.19654509496688832,-0.061580586135387416,-0.03427065887451164,0.004702195814512216,0.0045464189015611296,-0.00026605288071224626,0.014435788,0.006940503,0.006903613,0.016906738
0.0,-0.1380742,0.0,0.088582754,-0.0060195113,0.9960507,0.996061,0.004340026,-0.08856472,0.0037622878,-0.99997264,-0.006372107,0.11182966909408565,0.034187327533960345,0.16641837005615123,0.005237833180910083,0.004694623444723126,0.0005673692339720712,0.016327316,0.006940503,0.009718475,0.016914368
0.0,-0.11302672,0.0,0.09048251,-0.0060194996,0.9958798,0.9958902,0.0043400177,-0.090464495,0.0037501333,-0.99997264,-0.0063792835,0.062359393501281724,0.12516687886118888,0.12497259674072225,0.005523440982511941,0.005296984721805454,0.001189395371505822,0.016327316,0.009052847,0.01182754,0.01687622
0.0,-0.12621662,0.0,0.092613176,-0.006019486,0.99568397,0.9956944,0.004340008,-0.09259518,0.0037364836,-0.99997264,-0.006387308,-0.0013116405487061389,-0.030456359434127805,0.13165308990478408,0.0054892655748558505,0.005118218001025788,0.0018417138441722135,0.016327316,0.009052847,0.014059391,0.016952515
0.0,-0.10636516,0.0,0.09440517,-0.006019477,0.9955157,0.9955261,0.0043400005,-0.09438719,0.0037249872,-0.99997264,-0.0063940333,0.005325419139861953,-0.09749409532546996,-0.08219999847412218,0.005488446342680881,0.004605156434393309,0.0014215052825807413,0.016327316,0.009052847,0.014059391,0.016921997
0.0,0.0,0.0,0.09440517,-0.006019477,0.9955157,0.99552613,0.004340001,-0.094387196,0.0037249872,-0.99997264,-0.0063940333,0.1226413004875182,-0.2722708165168762,-0.20430428314208982,0.006074210613405068,0.0032207765696369616,0.00039287634045738853,0.018397037,0.004457944,0.010611507,0.01687622
0.0,0.0,0.0,0.09440517,-0.006019477,0.9955157,0.99552613,0.004340001,-0.094387196,0.0037249872,-0.99997264,-0.0063940333,0.22319777021408083,-0.061581070423126216,-0.08698840179443401,0.007159828411408447,0.0028967673346731457,-4.403005021706848e-05,0.022170583,0.004457944,0.010611507,0.016906738
0.0,0.07736072,0.0,0.09309834,-0.0060194717,0.9956388,0.9956492,0.004339997,-0.09308036,0.0037333802,-0.99997264,-0.006389144,0.04188722915649412,-0.09270574415922164,0.05547446594238181,0.007333465415133876,0.002418754777203672,0.0002335624297459259,0.022170583,0.004457944,0.010611507,0.016967773
0.0,0.09374816,0.0,0.09151375,-0.0060194638,0.99578565,0.995796,0.0043399916,-0.09149575,0.003743548,-0.99997264,-0.0063832025,0.1194385343551636,-0.11425363360643387,0.1929200485229483,0.007893990759834026,0.0018353928352854842,0.0011969948602119378,0.0241981,0.0025184427,0.013886402,0.016975403
0.0,0.06616929,0.0,0.09039871,-0.00601946,0.9958875,0.9958979,0.004339989,-0.09038069,0.0037506954,-0.99997264,-0.0063790106,-0.16667465400695802,0.07728246195316314,0.3427715148925774,0.007021147536000066,0.0022126281808748727,0.0029048674603737654,0.021377632,0.0025184427,0.01968678,0.016921997
0.067777395,0.0,0.0,0.090398654,-0.0048808497,0.9958938,0.9958979,0.004236656,-0.09038565,0.003750693,-0.9999793,-0.0052357293,-0.0661177074432373,0.07107551077008248,0.28764384155273426,0.006655453261103879,0.0025569425938209104,0.004328562330835568,0.021377632,0.0025184427,0.024538927,0.016868591
0.07350634,-0.061199773,0.0,0.09143223,-0.003639286,0.9958047,0.9958035,0.004123972,-0.091424584,0.0037452555,-0.99998504,-0.003992967,-0.04018571872711185,-0.031893712294101706,0.02274767150878887,0.006421247401162801,0.0023846893193812976,0.004420657876725335,0.021377632,0.0025184427,0.024538927,0.016960144
0.0,-0.06306501,0.0,0.0924992,-0.0036392838,0.99570614,0.995705,0.00412397,-0.09249156,0.003740977,-0.99998504,-0.00399698,0.07400927028656001,-0.055835751247406,-0.24445114746093743,0.006759187515589787,0.002093587116547361,0.003176298850037022,0.021377632,0.0025184427,0.02038554,0.016990662
0.0,0.0,0.0,0.0924992,-0.0036392838,0.99570614,0.995705,0.00412397,-0.09249156,0.003740977,-0.99998504,-0.00399698,0.05724985866546628,-0.0797777678489685,-0.3761322387695323,0.00701164087133917,0.0016842303417197815,0.0012797561619391751,0.021377632,0.0025184427,0.014034979,0.01688385
0.0,0.0,0.0,0.0924992,-0.0036392838,0.99570614,0.995705,0.00412397,-0.09249156,0.003740977,-0.99998504,-0.00399698,0.16498893337249743,0.0016250885963439987,-0.3593728271484373,0.007801527333844961,0.0016839346329929024,-0.0005235067546127074,0.024169575,0.0025184427,0.007953673,0.016921997
0.0,0.054444943,0.0,0.09158055,-0.0036392822,0.995791,0.9957899,0.004123968,-0.09157291,0.0037446646,-0.99998504,-0.0039935284,0.018237023162841703,0.0064134770154953,0.13301350860595562,0.007853704812989944,0.0017075823449054144,0.0001441783221901343,0.024169575,0.0025184427,0.010207571,0.016944885
-0.05106487,0.0,0.0,0.09158052,-0.004503255,0.9957875,0.9957899,0.004203419,-0.091569334,0.0037446632,-0.9999812,-0.0048611397,-0.0559829302787781,-0.09537656841874123,0.18571932373046884,0.007534521637531104,0.0012221615910871812,0.001072054049231528,0.024169575,0.0025184427,0.013363065,0.016990662
0.0,-0.08504816,0.0,0.09305748,-0.00450325,0.9956506,0.995653,0.0042034145,-0.0930463,0.0037374527,-0.9999812,-0.004866694,0.0710121722221374,-0.04988678157925605,-0.057166499328614506,0.007851909890454135,0.0009666168752354649,0.0007808612823422976,0.024169575,0.0025184427,0.013363065,0.017440796
0.0,-0.10463315,0.0,0.094821826,-0.004503243,0.9954841,0.9954865,0.004203408,-0.09481064,0.003728828,-0.9999812,-0.0048733177,-0.025034410667419515,-0.08579987726211546,-0.3572289672851561,0.007687478287664767,0.0005327844045487102,-0.0010091878604951941,0.024169575,0.0025184427,0.007312587,0.016937256
0.0,-0.06426409,0.0,0.09591263,-0.0045032403,0.9953796,0.995382,0.0042034057,-0.09590145,0.0037234877,-0.9999812,-0.004877404,0.2086404682159424,-0.03552166847586631,-0.5262082977294931,0.008692243237306154,0.000352512140146635,-0.0036351834098401837,0.02772725,0.0025184427,-0.0016601573,0.017051697
0.0,0.0,0.0,0.09591263,-0.0045032403,0.9953796,0.995382,0.0042034057,-0.09590145,0.0037234877,-0.9999812,-0.004877404,0.04583475532531733,-0.1648085581243038,-0.4304402313232423,0.008877955797746211,-0.00047329321117561726,-0.005769208649407194,0.02772725,-0.00026667508,-0.008934214,0.016899109
0.0,0.0,0.0,0.09591263,-0.0045032403,0.9953796,0.995382,0.0042034057,-0.09590145,0.0037234877,-0.9999812,-0.004877404,0.1487854267120361,-0.07622309669852256,-0.25566351013183564,0.00957749315231766,-0.000852042228612352,-0.007018680156819336,0.030248402,-0.00026667508,-0.013266402,0.016944885
0.0,0.0,0.0,0.09591263,-0.0045032403,0.9953796,0.995382,0.0042034057,-0.09590145,0.0037234877,-0.9999812,-0.004877404,0.00752752876281737,0.026727574688196185,-0.011454940795898594,0.009567243330370158,-0.0007141441440283094,-0.007040861460014733,0.030248402,-0.00026667508,-0.013266402,0.01687622
-0.056660578,0.0,0.0,0.09591258,-0.0054606297,0.9953748,0.995382,0.004295647,-0.09589741,0.0037234859,-0.99997604,-0.0058392193,-0.014019809341430767,-0.02388212703466415,0.1490033004760729,0.009449308067011154,-0.0008299840584814885,-0.006260640650334295,0.030248402,-0.00026667508,-0.010737011,0.016975403
0.0,0.0,0.0,0.09591258,-0.0054606297,0.9953748,0.995382,0.004295647,-0.09589741,0.0037234859,-0.99997604,-0.0058392193,-0.0810574558258057,-0.14598641170263288,0.012533805847168011,0.00899677424754707,-0.0015557661967022455,-0.006166668417846783,0.030248402,-0.0027426255,-0.010737011,0.016960144
0.0,0.0,0.0,0.09591258,-0.0054606297,0.9953748,0.995382,0.004295647,-0.09589741,0.0037234859,-0.99997604,-0.0058392193,0.08653666038513186,-0.021487925374507902,-0.0856284622192387,0.009384473678234995,-0.0016554269925912737,-0.006563977386853743,0.030248402,-0.0027426255,-0.010737011,0.016868591
0.0,0.0,0.0,0.09591258,-0.0054606297,0.9953748,0.995382,0.004295647,-0.09589741,0.0037234859,-0.99997604,-0.0058392193,0.10808447532653798,0.026396107828617097,-0.11196468048095731,0.00987797368647651,-0.001515169318485232,-0.007090980902324261,0.03207576,-0.0027426255,-0.012629969,0.016906738
0.0,0.0,0.0,0.09591258,-0.0054606297,0.9953748,0.995382,0.004295647,-0.09589741,0.0037234859,-0.99997604,-0.0058392193,-0.006837204360961913,-0.016699522054195406,-0.028167622375489643,0.009794397796239317,-0.0015910910821637827,-0.007196364109690087,0.03207576,-0.0027426255,-0.012629969,0.016921997
0.0,0.0,-0.051429927,0.09591735,-0.005376894,0.9953748,0.9953779,0.0051646573,-0.09589737,0.0045965067,-0.9999724,-0.0058392175,0.07212537603378288,-0.10609360616803168,-0.10238787384033188,0.010106052687427034,-0.0021136036575931222,-0.007672321658343296,0.03207576,-0.004543607,-0.014368044,0.016975403
0.0,0.0,0.0,0.09591735,-0.005376894,0.9953748,0.9953779,0.0051646573,-0.09589737,0.0045965067,-0.9999724,-0.0058392175,-0.07152672357559209,0.030375888460874557,-0.07365745391845735,0.00969788880611194,-0.0019511561970007839,-0.008002247319643866,0.03207576,-0.004543607,-0.014368044,0.016937256
0.0,-0.05973423,0.0,0.096927084,-0.0053768912,0.995277,0.99528,0.005164654,-0.09690709,0.004590583,-0.9999724,-0.0058438806,0.019278962707519498,0.023193257403373718,0.16191940002441285,0.009745794175618978,-0.0018254341289989115,-0.007152639082923582,0.03207576,-0.004543607,-0.011618162,0.016983032
-0.05186426,-0.089578025,-0.059024107,0.09844099,-0.006153573,0.9951239,0.9951263,0.0062437854,-0.098411076,0.0055804984,-0.99996185,-0.0067284564,-0.019282583141326914,-0.1871788177013397,0.2759250732421865,0.009600652289034249,-0.0027522010468606153,-0.005737250521298031,0.03207576,-0.0077110464,-0.006948958,0.016921997
0.0,-0.07945245,-0.086070046,0.09979387,-0.006009544,0.99499,0.99498224,0.007699683,-0.09975485,0.0070343916,-0.9999526,-0.0067359856,0.19989047422409056,-0.1765986726105213,-0.14894963989257803,0.010552101398709532,-0.0036214334046789187,-0.006453312468154431,0.035473555,-0.010712922,-0.009480847,0.016998291
0.0,0.0,-0.095396236,0.099803545,-0.00584881,0.99499,0.99496853,0.0093022445,-0.09975471,0.00864496,-0.99994,-0.006735977,0.1423361742973328,-0.0009799254894256593,-0.3165437561035169,0.011211021763202647,-0.0036082258651026523,-0.008003764686331244,0.037876736,-0.010712922,-0.0148253245,0.01688385
0.0,0.0,-0.08833498,0.099812254,-0.005700161,0.99499,0.99495363,0.010784152,-0.09975461,0.010134272,-0.99992603,-0.0067359693,0.13028106384277338,0.007161403864622121,-0.1681032531738289,0.0118063719736005,-0.0035543777164540285,-0.008804262128768732,0.040073402,-0.010712922,-0.017659707,0.016860962
0.0,0.06403759,-0.0786091,0.098743014,-0.005567565,0.9950974,0.99504584,0.012105854,-0.09867775,0.011469876,-0.9999116,-0.0067249956,0.06878044586181642,-0.09228132098317146,-0.042248162841797665,0.01209124234304158,-0.003998012432787616,-0.008971481632333876,0.040073402,-0.010712922,-0.017659707,0.016899109
0.0,0.06603606,-0.07048199,0.09763512,-0.005449526,0.99520737,0.99514055,0.013295299,-0.097563185,0.012672678,-0.9998972,-0.0067121447,0.2063718695640564,-0.11496901887655256,-0.00021397247314425272,0.013062645479146654,-0.004552867465006441,-0.008927694086537928,0.0435735,-0.012662813,-0.017659707,0.016960144
0.0,0.075761944,-0.056892406,0.09636439,-0.005355525,0.9953317,0.99525154,0.014253335,-0.09628724,0.01364391,-0.9998845,-0.0066958945,0.05823164339065545,0.008621714788675308,-0.058875488281250554,0.013288490468704199,-0.004486994553738032,-0.00917743305751149,0.0435735,-0.012662813,-0.017659707,0.016921997
0.0,0.061372966,0.0,0.0953339,-0.0053555225,0.995431,0.9953507,0.014253329,-0.095256835,0.013650843,-0.99988455,-0.0066817696,0.08254808721542362,0.011015894097089772,0.03114477844238195,0.013634788452437796,-0.004409480110483893,-0.008975822000012023,0.0435735,-0.012662813,-0.017659707,0.016868591
0.06711124,0.0,0.0,0.09533383,-0.0042291298,0.9954364,0.9953507,0.01414554,-0.095272966,0.013650835,-0.9998915,-0.005550337,0.00354008808135986,-0.13154256804585457,-0.09101100463867162,0.013584314950582405,-0.005045145550160747,-0.00938599791320532,0.0435735,-0.0148807475,-0.017659707,0.016860962
0.086163305,0.057509262,0.0,0.094330885,-0.0027266834,0.9955372,0.9954462,0.0140017355,-0.09429156,0.0136564085,-0.9998986,-0.0040274137,0.16884847393035884,0.0191484900444746,-0.31703966217041035,0.014360635745481286,-0.004924177372187571,-0.010924266234491345,0.046531234,-0.0148807475,-0.02321332,0.01751709
0.08989378,0.07296409,0.0,0.093100965,-0.0012116047,0.995656,0.99556196,0.013858226,-0.09308317,0.013661369,-0.9999037,-0.002488828,0.0011604689598082585,-0.1487112610220909,-0.22481306762695397,0.01429463491155292,-0.005643112790437088,-0.011993710241453657,0.046531234,-0.017398374,-0.02701932,0.016929626
0.09895351,0.086153984,0.0,0.09164394,0.0004616246,0.9957918,0.9956971,0.013701782,-0.0916497,0.013664991,-0.9999064,-0.0007884694,0.15170017642974853,-0.026005641201883554,-0.02501143035888731,0.014981662619143899,-0.00574492543249432,-0.012058798842040825,0.049107563,-0.017398374,-0.02701932,0.016983032
0.092425175,0.06390436,0.0,0.0905679,0.0020176535,0.9958883,0.9957955,0.013558561,-0.0905953,0.013665825,-0.99990636,0.0007887554,0.09744784774780268,0.06431293861567973,0.15122775268554633,0.015393993544787193,-0.005394636112253451,-0.011242366084402888,0.049107563,-0.017398374,-0.024462553,0.016906738
0.09588919,0.0,0.0,0.09056778,0.0036372566,0.9958837,0.9957955,0.013411227,-0.09061735,0.013665807,-0.99990374,0.0024148943,0.06871856031417845,-0.06864315868020057,0.2422512847900382,0.01566061637863415,-0.005710878725093187,-0.009974897830030681,0.049107563,-0.017398374,-0.020353936,0.016960144
0.11147725,0.0,0.0,0.09056762,0.005519287,0.99587506,0.9957955,0.013239976,-0.0906427,0.013665783,-0.99989736,0.004304524,-0.039018905067443876,0.032892488384246826,0.2950076446533192,0.01538721877140376,-0.0055178618895464875,-0.008449985117613933,0.049107563,-0.017398374,-0.015352814,0.016952515
0.13186163,-0.070126265,0.0,0.091746435,0.007736411,0.99575233,0.9956874,0.013038166,-0.09185113,0.013670847,-0.9998854,0.006514432,0.05254811363220213,-0.08189174474477767,0.11423278198242137,0.015573023245707751,-0.005899731303822643,-0.007836571282113756,0.049107563,-0.017398374,-0.0134241255,0.01688385
0.097621195,-0.06532994,0.0,0.0928436,0.00937613,0.9956366,0.9955855,0.012886902,-0.092969805,0.013678008,-0.99987334,0.0081458995,0.1377210968017577,-0.04744798295497894,0.00042976226806601403,0.016183763613488,-0.006107472562078425,-0.007795239614362857,0.051430725,-0.017398374,-0.0134241255,0.016868591
0.0,0.0,0.0,0.0928436,0.00937613,0.9956366,0.99558556,0.012886903,-0.09296981,0.013678008,-0.99987334,0.0081458995,0.11617328186035158,-0.004352353072166443,-0.10491511077880844,0.01668371120472232,-0.006098696964628865,-0.008280838970185085,0.053404585,-0.017398374,-0.015206703,0.016990662
0.0,-0.061466236,0.0,0.09388614,0.0093761245,0.9955388,0.99548763,0.012886896,-0.0940123,0.013686538,-0.99987334,0.008131577,0.039067993640899634,-0.006746502578258526,0.3030433090209961,0.016795632616903207,-0.006101935992697013,-0.00672421823022918,0.053404585,-0.017398374,-0.010043925,0.017036438
0.0,-0.11355965,0.0,0.0957956,0.009376108,0.9953569,0.99530554,0.0128868725,-0.09592166,0.0137021355,-0.99987334,0.008105324,-0.1349944667816163,0.07705071943998335,0.3742308715820304,0.01603668211991061,-0.005686172715533611,-0.004819442781167882,0.051124327,-0.017398374,-0.0037226116,0.01689148
0.0,-0.17697772,0.0,0.098766655,0.009376065,0.9950664,0.99501467,0.012886814,-0.09889256,0.013726333,-0.99987334,0.008064418,0.003908715248107875,0.0052250868678092866,0.3339409515380858,0.015976042285551596,-0.005631616417616897,-0.0031256408095716144,0.051124327,-0.017398374,0.0019105019,0.016868591
0.0,-0.18217374,0.0,0.10184477,0.009376021,0.99475616,0.99470395,0.012886752,-0.101970516,0.013751283,-0.99987334,0.008021951,0.13220118846893314,-0.03787012578248978,-0.02937545776367223,0.016557168016468504,-0.005792808964441261,-0.0032568898943421175,0.053369503,-0.017398374,0.0019105019,0.016983032
0.05871767,-0.1227526,0.0,0.10392665,0.010371977,0.99453086,0.99448836,0.012784629,-0.10406525,0.013768068,-0.9998648,0.008994272,0.2653258056640624,0.00757874417304992,-0.18282323455810534,0.017801011204706473,-0.005725951198753806,-0.004154721617660934,0.05789376,-0.017398374,-0.0012069445,0.017051697
0.0,-0.09823806,0.0,0.105586514,0.0103719635,0.9943561,0.99431324,0.0127846105,-0.10572503,0.0137830805,-0.9998648,0.008971292,-0.07870882205963137,0.04588610484600067,0.19475442962646383,0.017318462038384785,-0.005467890918530034,-0.00316017586144031,0.05789376,-0.017398374,0.002102062,0.016990662
0.0,-0.10076945,-0.050230846,0.1072777,0.01046194,0.9941741,0.99411976,0.013632045,-0.107424945,0.014650605,-0.9998527,0.008947722,0.089313271522522,0.016286790764331815,0.0696184097290029,0.01767843608580547,-0.005359117510115724,-0.002796282933488094,0.05789376,-0.017398374,0.002102062,0.016967773
-0.055461496,0.0,0.0,0.10727765,0.00952636,0.9941835,0.99411976,0.013733138,-0.107412115,0.014650597,-0.99986064,0.008006798,0.22578324298858643,-0.10635956259965897,-0.20819862823486446,0.018718960120319372,-0.00586411973556344,-0.003823294659994976,0.0617248,-0.01920306,-0.0014306051,0.016967773
-0.13060392,0.054844636,0.0,0.10635466,0.0073291147,0.99430126,0.99421895,0.013970521,-0.10645909,0.014643132,-0.99987596,0.0058106096,0.34482955951690664,-0.25752367795705794,-0.2260957733154303,0.020349513117302306,-0.007122417526670912,-0.004934657053272153,0.06756,-0.023560874,-0.005256597,0.016921997
-0.10022719,0.117863014,0.0,0.104379244,0.00564956,0.99452156,0.9944284,0.014150319,-0.10446038,0.014631569,-0.99988437,0.0041507375,0.1771581773757933,-0.19342048702836037,0.051898173522948454,0.021133556438594762,-0.00805390787417936,-0.004650492900391049,0.07054571,-0.026820654,-0.005256597,0.016853333
0.0,0.13078645,0.0,0.10218689,0.0056495466,0.99474925,0.99465626,0.014150285,-0.10226823,0.01462242,-0.99988437,0.0041829883,0.12171487684249871,-0.09525808857679366,-0.026914498901367878,0.02163646304061428,-0.00848992877769243,-0.004761812930395933,0.07259701,-0.026820654,-0.005256597,0.016853333
0.0,0.14863943,0.0,0.099685624,0.0056495285,0.9950029,0.9949102,0.0141502395,-0.0997672,0.014611904,-0.99988437,0.0042197513,0.1315039127349853,0.08430721102356911,-0.13470936126709,0.022185800289086136,-0.008025943078686123,-0.005411550672079404,0.074821316,-0.026820654,-0.0075351205,0.016914368
0.0,0.17328721,0.0,0.09676355,0.0056495043,0.99529135,0.99519885,0.014150179,-0.096845396,0.014599513,-0.99988437,0.004262657,0.19324064769744864,0.08909584531188011,0.22642360839843612,0.02304107452612795,-0.0075403341367332915,-0.004252374876726826,0.07809576,-0.026820654,-0.0036983984,0.016944885
0.0,0.07975888,0.0,0.095422566,0.0056494996,0.9954209,0.9953285,0.014150167,-0.09550454,0.014593771,-0.99988437,0.004282326,-0.150545754146576,0.16331614148020743,0.8428773696899405,0.02217314038276443,-0.006686051758648588,-1.672615389348986e-05,0.07555281,-0.024062002,0.010539047,0.01689148
0.0,0.0,0.0,0.095422566,0.0056494996,0.9954209,0.9953285,0.014150167,-0.09550454,0.014593771,-0.99988437,0.004282326,0.07690340356826775,-0.06413301623463631,0.2203849380493157,0.022446791698691945,-0.006973286581028526,0.001085282167122556,0.07555281,-0.024062002,0.014248224,0.016830444
0.0,0.0,0.0,0.095422566,0.0056494996,0.9954209,0.9953285,0.014150167,-0.09550454,0.014593771,-0.99988437,0.004282326,0.2301323098182677,-0.06173881457448006,-0.11480329437255854,0.023485219289289823,-0.007247114220995783,0.0005058392844241505,0.079575285,-0.024062002,0.012241583,0.017478943
0.0,0.0,0.0,0.095422566,0.0056494996,0.9954209,0.9953285,0.014150167,-0.09550454,0.014593771,-0.99988437,0.004282326,-0.04759508275985724,-0.17666049426198005,-0.24409018402099747,0.023129817779044087,-0.008094181121200705,-0.0007171408321029576,0.079575285,-0.027056841,0.008103641,0.016952515
0.0,0.0,0.0,0.095422566,0.0056494996,0.9954209,0.9953285,0.014150167,-0.09550454,0.014593771,-0.99988437,0.004282326,0.12478743677139281,0.007693033570051189,-0.21057136077880934,0.02363810587400583,-0.008015245047744445,-0.0017664119318364893,0.08168408,-0.027056841,0.004545172,0.016899109
-0.06931755,0.11959502,0.0,0.09341052,0.0044834465,0.9956176,0.99551934,0.01426201,-0.093476154,0.014585108,-0.9998888,0.0031405496,-0.1813940073013306,-0.3282058392226696,0.12032295074462773,0.02261294530812915,-0.009616198018619071,-0.0011559651184541682,0.07861868,-0.032603227,0.0065785227,0.016899109
0.0,0.08135766,0.0,0.092044674,0.0044834423,0.9957448,0.9956467,0.014261998,-0.092110455,0.014580799,-0.9998888,0.003160557,0.06882169008255001,0.011770837497711177,0.2196510879516591,0.022843989032001254,-0.00950926284103742,-5.1929853103601905e-05,0.07861868,-0.032603227,0.010282052,0.016860962
0.0,0.053512324,0.0,0.091138884,0.00448344,0.9958281,0.99573004,0.014261992,-0.091204755,0.014577924,-0.9998888,0.00317382,0.09911654624938959,-0.15342905470132828,0.2356055984497072,0.023225351818088193,-0.010228861800338874,0.001126357788410452,0.07861868,-0.035211258,0.014286945,0.016998291
-0.056127653,0.0,0.0,0.091138855,0.0035418735,0.99583197,0.99573004,0.014348227,-0.09119127,0.014577918,-0.9998913,0.0022284142,0.23319213724136345,-0.07969307032823562,-0.0038517608642578693,0.02427518574520457,-0.010576182842978357,0.0011014671951471106,0.08254697,-0.035211258,0.014286945,0.016845703
0.0,0.0,0.0,0.091138855,0.0035418735,0.99583197,0.99573004,0.014348227,-0.09119127,0.014577918,-0.9998913,0.0022284142,0.05841541604995726,-0.24249878321886062,0.1086757171630861,0.024445886896728334,-0.011735795844857769,0.0016393384449868054,0.08254697,-0.03929447,0.016116835,0.016838074
0.0,0.0,0.0,0.091138855,0.0035418735,0.99583197,0.99573004,0.014348227,-0.09119127,0.014577918,-0.9998913,0.0022284142,0.11108785257339471,0.2578893637537956,-0.11398503723144593,0.024879096725111665,-0.010387670046864502,0.0010612165666046415,0.08442511,-0.0349344,0.01418972,0.016906738
0.0,0.0,0.0,0.091138855,0.0035418735,0.99583197,0.99573004,0.014348227,-0.09119127,0.014577918,-0.9998913,0.0022284142,0.02489659280776968,-0.07969307032823562,-0.05412999572753918,0.024879184205524953,-0.010734197048271358,0.0007852605051339223,0.08442511,-0.0349344,0.01418972,0.016899109
0.0,0.0,0.0,0.091138855,0.0035418735,0.99583197,0.99573004,0.014348227,-0.09119127,0.014577918,-0.9998913,0.0022284142,0.17333709573745715,-0.13715391017198564,-0.06610100402832053,0.025621473763184615,-0.011366295613889929,0.00045082918246665006,0.08734641,-0.037245903,0.01418972,0.016853333
0.0,0.0,-0.10112518,0.0911328,0.003697834,0.99583197,0.99570405,0.016052138,-0.091191135,0.016288947,-0.9998649,0.002228411,0.027349266624450586,-0.3732917555809021,0.06318588562011662,0.025630112727490943,-0.013175922913724991,0.0007645044646548999,0.08734641,-0.043562744,0.01418972,0.016921997
0.0,0.0,-0.096462086,0.09112677,0.0038464586,0.99583197,0.9956766,0.01767597,-0.091191016,0.017919563,-0.999837,0.002228408,0.19739581823348984,0.11847854381799697,0.03684966735839801,0.026488941255020937,-0.012517650580066382,0.0009449302791236155,0.09068373,-0.04155966,0.01418972,0.016906738
-0.05586119,0.0,-0.066884756,0.09112238,0.003007498,0.99583524,0.99565583,0.018890182,-0.09117422,0.019052202,-0.9998177,0.0012824254,0.04660349254608154,0.17925267276465892,0.020058784484863423,0.02658951401147624,-0.011558798963342757,0.0010404995501523144,0.09068373,-0.03852361,0.01418972,0.016937256
0.0,0.0,0.0,0.09112238,0.003007498,0.99583524,0.99565583,0.018890182,-0.09117422,0.019052202,-0.9998177,0.0012824254,0.12800634899139407,-0.06974429989159106,0.017664582824705732,0.02709659818637583,-0.011849726467983998,0.0011236199665250815,0.092848875,-0.03852361,0.01418972,0.016914368
0.0,0.0,0.0,0.09112238,0.003007498,0.99583524,0.99565583,0.018890182,-0.09117422,0.019052202,-0.9998177,0.0012824254,0.027449879264831445,-0.07453270321190357,-0.05416146697998059,0.027098364591768107,-0.012163141351703597,0.000847194531792553,0.092848875,-0.03852361,0.01418972,0.016830444
0.0,0.0,0.0,0.09112238,0.003007498,0.99583524,0.99565583,0.018890182,-0.09117422,0.019052202,-0.9998177,0.0012824254,0.080122315788269,-0.07453270321190357,-0.02064264373779423,0.02736348434775061,-0.012474989161004597,0.0007397453404446191,0.092848875,-0.03852361,0.01418972,0.016830444
0.0,0.0,0.0,0.09112238,0.003007498,0.99583524,0.99565583,0.018890182,-0.09117422,0.019052202,-0.9998177,0.0012824254,0.07772811412811276,0.5048640985459089,-0.07092087860107554,0.027615307496652423,-0.00988829372247003,0.00038144222073701825,0.092848875,-0.03001882,0.01418972,0.016845703
0.0,0.0,0.0,0.09112238,0.003007498,0.99583524,0.99565583,0.018890182,-0.09117422,0.019052202,-0.9998177,0.0012824254,0.1399773572921752,-0.04580228329002857,0.020058784484863423,0.028177117745630035,-0.010067863670307823,0.00047982893205765026,0.0952133,-0.03001882,0.01418972,0.01689148
0.0,0.0,0.0,0.09112238,0.003007498,0.99583524,0.99565583,0.018890182,-0.09117422,0.019052202,-0.9998177,0.0012824254,-0.013251548957824766,-0.06735009823143481,0.020058784484863423,0.027969974412112762,-0.010354274843113458,0.0005777237098216791,0.0952133,-0.03001882,0.01418972,0.01689148
0.0,0.0,0.0,0.09112238,0.003007498,0.99583524,0.99565583,0.018890182,-0.09117422,0.019052202,-0.9998177,0.0012824254,0.04181508922576904,-0.07692690487205982,0.017664582824705732,0.028039199986181044,-0.01068713799325819,0.0006631580053960994,0.0952133,-0.03001882,0.01418972,0.016853333
0.0,0.0,0.0,0.09112238,0.003007498,0.99583524,0.99565583,0.018890182,-0.09117422,0.019052202,-0.9998177,0.0012824254,0.060968702507019024,-0.05298488827049732,-0.001489030456543361,0.028203847498785236,-0.010898626744644386,0.0006523970630864021,0.0952133,-0.03001882,0.01418972,0.016830444
0.0,0.0,0.0,0.09112238,0.003007498,0.99583524,0.99565583,0.018890182,-0.09117422,0.019052202,-0.9998177,0.0012824254,0.12800634899139407,-0.13917614803612233,-0.11162230682373142,0.02870286000624828,-0.011540014351101776,9.102354365231292e-05,0.0973804,-0.03237502,0.012299996,0.016929626
0.0,0.0,0.0,0.09112238,0.003007498,0.99583524,0.99565583,0.018890182,-0.09117422,0.019052202,-0.9998177,0.0012824254,0.03223828258514394,-0.07692690487205982,-0.001489030456543361,0.02872053711914276,-0.011866948803706565,8.312327365133455e-05,0.0973804,-0.03237502,0.012299996,0.017578125
0.0,0.0,0.0,0.09112238,0.003007498,0.99583524,0.99565583,0.018890182,-0.09117422,0.019052202,-0.9998177,0.0012824254,0.03463248424530019,-0.10326312313377857,-0.02064264373779423,0.028750096854773546,-0.012323929675356924,-2.050556140589327e-05,0.0973804,-0.034120075,0.012299996,0.016899109
0.0,0.0,0.0,0.09112238,0.003007498,0.99583524,0.99565583,0.018890182,-0.09117422,0.019052202,-0.9998177,0.0012824254,0.089699122428894,-0.04819648495018482,-0.00627743377685519,0.029054841982644148,-0.012503292451731063,-5.1790202483139756e-05,0.0973804,-0.034120075,0.012299996,0.01689148
0.0,0.0,0.0,0.09112238,0.003007498,0.99583524,0.99565583,0.018890182,-0.09117422,0.019052202,-0.9998177,0.0012824254,0.025055677604675197,-0.08650371151268482,-0.0038832321166992756,0.029034846160754305,-0.012873294547035832,-7.094741205422044e-05,0.0973804,-0.034120075,0.012299996,0.016944885
0.0,0.0,0.0,0.09112238,0.003007498,0.99583524,0.99565583,0.018890182,-0.09117422,0.019052202,-0.9998177,0.0012824254,0.1495541639328002,-0.04340808162987232,-0.03021945037841789,0.029637442749614534,-0.013025968482450015,-0.0002216899268860388,0.099904306,-0.034120075,0.012299996,0.01687622
0.0,0.0,0.0,0.09112238,0.003007498,0.99583524,0.99565583,0.018890182,-0.09117422,0.019052202,-0.9998177,0.0012824254,0.13279475231170657,-0.13678194637596608,0.005693574523924383,0.030153229297424994,-0.013644748371917596,-0.0001921136046319867,0.10214437,-0.036427394,0.012299996,0.016868591
0.0,0.0,0.0,0.09112238,0.003007498,0.99583524,0.99565583,0.018890182,-0.09117422,0.019052202,-0.9998177,0.0012824254,0.039420887565612794,-0.09847471981346607,0.020058784484863423,0.030199567588765935,-0.014068898229125337,-9.085911418450964e-05,0.10214437,-0.036427394,0.012299996,0.016845703
0.0,0.0,0.0,0.09112238,0.003007498,0.99583524,0.99565583,0.018890182,-0.09117422,0.019052202,-0.9998177,0.0012824254,0.017873072624206454,-0.12959934139549734,0.06794281768798704,0.030137935113943137,-0.014646550444957196,0.00024930926982634814,0.10214437,-0.038620472,0.012299996,0.016921997
0.0,0.0,0.0,0.09112238,0.003007498,0.99583524,0.99565583,0.018890182,-0.09117422,0.019052202,-0.9998177,0.0012824254,0.11124693737030023,-0.021860266688466072,0.03202979278564477,0.030543480125224922,-0.01468261902617474,0.0004082116874054403,0.10402434,-0.038620472,0.012299996,0.016899109
0.0,0.0,0.0,0.09112238,0.003007498,0.99583524,0.99565583,0.018890182,-0.09117422,0.019052202,-0.9998177,0.0012824254,0.058574500846862776,-0.13199354305565358,-0.02543104705810606,0.03068363522883311,-0.015269173646322135,0.0002790153936778828,0.10402434,-0.04085205,0.012299996,0.016906738
0.0,0.0,0.0,0.09112238,0.003007498,0.99583524,0.99565583,0.018890182,-0.09117422,0.019052202,-0.9998177,0.0012824254,0.1351889539718627,-0.12002253475487232,-0.05416146697998059,0.03120616182254826,-0.015792940451864888,6.812981809590417e-06,0.106308915,-0.042880327,0.012299996,0.016899109
0.0,0.0,0.0,0.09112238,0.003007498,0.99583524,0.99565583,0.018890182,-0.09117422,0.019052202,-0.9998177,0.0012824254,0.017873072624206454,-0.10086892147362232,0.012876179504393903,0.03113949637655655,-0.016218320356973674,7.115981442251199e-05,0.106308915,-0.04458569,0.012299996,0.016906738
0.0,0.0,0.0,0.09112238,0.003007498,0.99583524,0.99565583,0.018890182,-0.09117422,0.019052202,-0.9998177,0.0012824254,0.07772811412811276,-0.08410950985252857,-0.027825248718261975,0.03137243946531433,-0.01655777630445145,-6.832222824091045e-05,0.106308915,-0.04458569,0.012299996,0.016944885
0.0,0.0,0.0,0.09112238,0.003007498,0.99583524,0.99565583,0.018890182,-0.09117422,0.019052202,-0.9998177,0.0012824254,0.09448752574920649,-0.06735009823143481,-0.1092281051635755,0.03168801489673379,-0.016811737914086366,-0.0006141211429175834,0.106308915,-0.04458569,0.010456638,0.01687622
0.0,0.0,0.0,0.09112238,0.003007498,0.99583524,0.99565583,0.018890182,-0.09117422,0.019052202,-0.9998177,0.0012824254,0.15913097057342518,-0.10326312313377857,0.017664582824705732,0.032325229675117244,-0.017243994840184827,-0.0005227276230794668,0.108988374,-0.046324443,0.010456638,0.016838074
0.0,0.0,0.0,0.09112238,0.003007498,0.99583524,0.99565583,0.018890182,-0.09117422,0.019052202,-0.9998177,0.0012824254,0.0849107191085815,-0.12002253475487232,-0.04458466033935515,0.032588157122284564,-0.017757887539758266,-0.0007430372866608452,0.108988374,-0.048350886,0.010456638,0.01688385
0.0,0.0,0.0,0.09112238,0.003007498,0.99583524,0.99565583,0.018890182,-0.09117422,0.019052202,-0.9998177,0.0012824254,0.12800634899139407,-0.06256169491112232,0.12540365753173788,0.03306524808163011,-0.017981906576615084,-0.00011230381256885163,0.11116134,-0.048350886,0.012585416,0.016975403
0.0,0.0,0.0,0.09112238,0.003007498,0.99583524,0.99565583,0.018890182,-0.09117422,0.019052202,-0.9998177,0.0012824254,-0.00846314563751227,-0.14635875301659107,-0.03261365203857558,0.0328576061130344,-0.018623790808814964,-0.00027481055369888525,0.11116134,-0.050815284,0.012585416,0.016838074
0.0,0.0,0.0,0.09112238,0.003007498,0.99583524,0.99565583,0.018890182,-0.09117422,0.019052202,-0.9998177,0.0012824254,0.10645853404998773,-0.05777329159080982,0.0799138259887684,0.03322561075271916,-0.018819538312724936,0.00012613262901345118,0.11295958,-0.050815284,0.012585416,0.01689148
0.0,0.0,0.0,0.09112238,0.003007498,0.99583524,0.99565583,0.018890182,-0.09117422,0.019052202,-0.9998177,0.0012824254,0.003507862663268968,-0.08410950985252857,-0.03740205535888741,0.0330770220122719,-0.019145988170423955,-6.150831092605313e-05,0.11295958,-0.050815284,0.012585416,0.016838074
0.0,0.0,0.0,0.09112238,0.003007498,0.99583524,0.99565583,0.018890182,-0.09117422,0.019052202,-0.9998177,0.0012824254,0.1399773572921752,-0.07692690487205982,-0.04937306365966876,0.03361152368867142,-0.019434892753932134,-0.0003080660876697667,0.11532187,-0.050815284,0.012585416,0.01687622
0.0,0.0,0.0,0.09112238,0.003007498,0.99583524,0.99565583,0.018890182,-0.09117422,0.019052202,-0.9998177,0.0012824254,0.02266147594451895,-0.08410950985252857,-0.011065837097168796,0.03355677344995066,-0.019758265839425117,-0.00036185494271726183,0.11532187,-0.050815284,0.012585416,0.016937256
0.0,0.0,0.0,0.09112238,0.003007498,0.99583524,0.99565583,0.018890182,-0.09117422,0.019052202,-0.9998177,0.0012824254,0.15673676891326904,-0.04819648495018482,0.0032993728637684683,0.03417267342726725,-0.019900456934978914,-0.00034354880368483315,0.11796101,-0.050815284,0.012585416,0.016838074
0.0,0.0,0.0,0.09112238,0.003007498,0.99583524,0.99565583,0.018890182,-0.09117422,0.019052202,-0.9998177,0.0012824254,-0.022828355598449757,-0.06974429989159106,-0.04219045867919924,0.03388766828213866,-0.020149676149761972,-0.0005527833530624052,0.11796101,-0.050815284,0.012585416,0.01713562
0.0,0.0,0.0,0.09112238,0.003007498,0.99583524,0.99565583,0.018890182,-0.09117422,0.019052202,-0.9998177,0.0012824254,0.07293971080780026,-0.09847471981346607,-0.015854240417480625,0.03408292849476697,-0.020541301368080495,-0.0006292906383844963,0.11796101,-0.050815284,0.012585416,0.017601013
0.0,0.0,0.0,0.09112238,0.003007498,0.99583524,0.99565583,0.018890182,-0.09117422,0.019052202,-0.9998177,0.0012824254,0.008296265983581463,-0.08650371151268482,0.010481977844237989,0.033953995182211046,-0.020871113418803516,-0.0005737342959713839,0.11796101,-0.050815284,0.012585416,0.016998291
0.0,0.0,0.0,0.09112238,0.003007498,0.99583524,0.99565583,0.018890182,-0.09117422,0.019052202,-0.9998177,0.0012824254,0.12082374401092522,-0.04580228329002857,-0.07092087860107554,0.03438834392635462,-0.02099576926815964,-0.0009254700174969047,0.11999914,-0.050815284,0.012585416,0.016868591
0.0,0.0,0.0,0.09112238,0.003007498,0.99583524,0.99565583,0.018890182,-0.09117422,0.019052202,-0.9998177,0.0012824254,0.10645853404998773,-0.09368631649315357,-0.02543104705810606,0.03474869487697278,-0.02135922200428461,-0.0010479979026999505,0.12179495,-0.050815284,0.012585416,0.016868591
0.0,0.0,0.0,0.09112238,0.003007498,0.99583524,0.99565583,0.018890182,-0.09117422,0.019052202,-0.9998177,0.0012824254,0.080122315788269,-0.11762833309471607,-0.035007853698731495,0.03497556298152927,-0.02184056755973677,-0.0012177971816801083,0.12179495,-0.052803997,0.012585416,0.016906738
0.0,0.0,0.0,0.09112238,0.003007498,0.99583524,0.99565583,0.018890182,-0.09117422,0.019052202,-0.9998177,0.0012824254,0.1495541639328002,-0.08410950985252857,0.04878920440673795,0.03554845598628562,-0.022151912271200728,-0.000967762173738018,0.12432228,-0.052803997,0.012585416,0.016899109
0.0,0.0,0.0,0.09112238,0.003007498,0.99583524,0.99565583,0.018890182,-0.09117422,0.019052202,-0.9998177,0.0012824254,0.017873072624206454,-0.11523413143455982,-0.04937306365966876,0.03546007906947523,-0.022617323367017522,-0.0012097886811676718,0.12432228,-0.054749593,0.012585416,0.01688385
0.0,0.0,0.0,0.09112238,0.003007498,0.99583524,0.99565583,0.018890182,-0.09117422,0.019052202,-0.9998177,0.0012824254,0.10406433238983148,-0.06256169491112232,0.012876179504393903,0.03580310033607701,-0.022817045224738045,-0.001139358840239864,0.1260777,-0.054749593,0.012585416,0.016868591
0.0,0.0,0.0,0.09112238,0.003007498,0.99583524,0.99565583,0.018890182,-0.09117422,0.019052202,-0.9998177,0.0012824254,-0.044376170539855986,-0.13678194637596608,-0.04458466033935515,0.03540220398169735,-0.023386869730494187,-0.0013565853477354405,0.1260777,-0.057058997,0.012585416,0.01688385
0.0,0.0,0.0,0.09112238,0.003007498,0.99583524,0.99565583,0.018890182,-0.09117422,0.019052202,-0.9998177,0.0012824254,0.16870777721405017,-0.05298488827049732,-0.05416146697998059,0.03606873184785911,-0.023534859823194202,-0.0016206097558966663,0.128939,-0.057058997,0.012585416,0.016960144
0.0,0.0,0.0,0.09112238,0.003007498,0.99583524,0.99565583,0.018890182,-0.09117422,0.019052202,-0.9998177,0.0012824254,0.02266147594451895,-0.09129211483299732,0.0368181961059566,0.03600169556834241,-0.023873646098243217,-0.0014284157265874,0.128939,-0.057058997,0.012585416,0.016860962
0.0,0.0,0.0,0.09112238,0.003007498,0.99583524,0.99565583,0.018890182,-0.09117422,0.019052202,-0.9998177,0.0012824254,0.04660349254608154,-0.06495589657127857,0.022452986145019338,0.0360547045532311,-0.024079057350608397,-0.0013090087172293661,0.128939,-0.057058997,0.012585416,0.016845703
0.0,0.0,0.0,0.09112238,0.003007498,0.99583524,0.99565583,0.018890182,-0.09117422,0.019052202,-0.9998177,0.0012824254,0.08730492076873775,-0.10326312313377857,-0.02064264373779423,0.03631095563430863,-0.024474977679524248,-0.0014056768923321906,0.128939,-0.05880169,0.012585416,0.01687622
0.0,0.0,0.0,0.09112238,0.003007498,0.99583524,0.99565583,0.018890182,-0.09117422,0.019052202,-0.9998177,0.0012824254,0.10885273571014398,-0.09847471981346607,-0.035007853698731495,0.03667366453468781,-0.024844976390193958,-0.0015736877763641872,0.13078184,-0.05880169,0.012585416,0.016929626
0.0,0.0,0.0,0.09112238,0.003007498,0.99583524,0.99565583,0.018890182,-0.09117422,0.019052202,-0.9998177,0.0012824254,0.02266147594451895,-0.10565732479393482,-0.04937306365966876,0.03660360359173696,-0.025249038132212662,-0.00181268465578071,0.13078184,-0.060580753,0.012585416,0.016838074
0.0,0.0,0.0,0.09112238,0.003007498,0.99583524,0.99565583,0.018890182,-0.09117422,0.019052202,-0.9998177,0.0012824254,0.10406433238983148,-0.08650371151268482,0.005693574523924383,0.03694090723572744,-0.025555311499115024,-0.0017751533598821846,0.13254043,-0.060580753,0.012585416,0.016899109
0.0,0.0,0.0,0.09112238,0.003007498,0.99583524,0.99565583,0.018890182,-0.09117422,0.019052202,-0.9998177,0.0012824254,0.02266147594451895,-0.13438774471580983,-0.011065837097168796,0.036869510079271396,-0.0260994736651985,-0.0018216067785686177,0.13254043,-0.06284358,0.012585416,0.016838074
0.0,0.0,0.0,0.09112238,0.003007498,0.99583524,0.99565583,0.018890182,-0.09117422,0.019052202,-0.9998177,0.0012824254,0.17349618053436267,-0.12241673641502857,-0.011065837097168796,0.03755264343154686,-0.02658105997894765,-0.0018678279301616186,0.13547237,-0.06491232,0.012585416,0.016899109
0.0,0.0,0.0,0.09112238,0.003007498,0.99583524,0.99565583,0.018890182,-0.09117422,0.019052202,-0.9998177,0.0012824254,0.027449879264831445,-0.08410950985252857,-0.04937306365966876,0.03750212961071328,-0.026868702228315555,-0.002105354108809154,0.13547237,-0.06491232,0.012585416,0.016990662
0.0,0.0,0.0,0.09112238,0.003007498,0.99583524,0.99565583,0.018890182,-0.09117422,0.019052202,-0.9998177,0.0012824254,0.16152517223358154,-0.06256169491112232,-0.011065837097168796,0.038122244823827624,-0.027047167191729587,-0.002150156523750952,0.13819215,-0.06491232,0.012585416,0.016838074
0.0,0.0,0.0,0.09112238,0.003007498,0.99583524,0.99565583,0.018890182,-0.09117422,0.019052202,-0.9998177,0.0012824254,0.060968702507019024,-0.14396455135643482,-0.001489030456543361,0.03823647711224358,-0.027631754112553114,-0.002146850893414914,0.13819215,-0.06733531,0.012585416,0.016830444
0.0,0.0,0.0,0.09112238,0.003007498,0.99583524,0.99565583,0.018890182,-0.09117422,0.019052202,-0.9998177,0.0012824254,0.09927592906951899,-0.08171530819237233,-0.02543104705810606,0.03854167437202995,-0.02790217188295221,-0.00226327187423837,0.13819215,-0.06733531,0.012585416,0.016838074
0.0,0.0,0.0,0.09112238,0.003007498,0.99583524,0.99565583,0.018890182,-0.09117422,0.019052202,-0.9998177,0.0012824254,0.060968702507019024,-0.13917614803612233,-0.035007853698731495,0.038653809512704904,-0.02845854176371806,-0.0024269947833608354,0.13819215,-0.06969044,0.012585416,0.016921997
0.0,0.0,0.0,0.09112238,0.003007498,0.99583524,0.99565583,0.018890182,-0.09117422,0.019052202,-0.9998177,0.0012824254,0.04420929088592529,-0.12002253475487232,-0.001489030456543361,0.03868158691957101,-0.028916361728673835,-0.0024223049617267483,0.13819215,-0.07178923,0.012585416,0.017486572
0.0,0.0,0.0,0.09112238,0.003007498,0.99583524,0.99565583,0.018890182,-0.09117422,0.019052202,-0.9998177,0.0012824254,0.09927592906951899,-0.11044572811424731,0.024847187805175253,0.03898455863032074,-0.029324008560601703,-0.0022859574978922386,0.13819215,-0.073659874,0.012585416,0.016937256
0.0,0.0,0.0,0.09112238,0.003007498,0.99583524,0.99565583,0.018890182,-0.09117422,0.019052202,-0.9998177,0.0012824254,0.06815130748748777,-0.06735009823143481,0.07751962432861248,0.039130392374606575,-0.02951413900895587,-0.001886929588759715,0.13819215,-0.073659874,0.012585416,0.016899109
0.0,0.0,0.0,0.09112238,0.003007498,0.99583524,0.99565583,0.018890182,-0.09117422,0.019052202,-0.9998177,0.0012824254,0.12800634899139407,-0.07453270321190357,0.06794281768798704,0.039574772157690515,-0.029739231829970608,-0.0015377808523759813,0.14037097,-0.073659874,0.012585416,0.01702118
0.0,0.0,0.0,0.09112238,0.003007498,0.99583524,0.99565583,0.018890182,-0.09117422,0.019052202,-0.9998177,0.0012824254,-0.013251548957824766,-0.09847471981346607,-0.035007853698731495,0.03931064055211293,-0.030082909269888086,-0.001705131216607759,0.14037097,-0.073659874,0.012585416,0.016860962
0.0,0.0,0.0,0.09112238,0.003007498,0.99583524,0.99565583,0.018890182,-0.09117422,0.019052202,-0.9998177,0.0012824254,0.0849107191085815,-0.033831274989247324,0.012876179504393903,0.03953864094489527,-0.030101651098484884,-0.0016322246630027508,0.14037097,-0.073659874,0.012585416,0.016822815
0.0,0.0,0.0,0.09112238,0.003007498,0.99583524,0.99565583,0.018890182,-0.09117422,0.019052202,-0.9998177,0.0012824254,0.09209332408905024,-0.09368631649315357,-0.04219045867919924,0.039801414360616044,-0.03041957442545823,-0.0018350158330837332,0.14037097,-0.073659874,0.012585416,0.016853333
0.0,0.0,0.0,0.09112238,0.003007498,0.99583524,0.99565583,0.018890182,-0.09117422,0.019052202,-0.9998177,0.0012824254,0.11842954235076897,-0.005100855067372324,0.008087776184082074,0.04019455500056681,-0.030292980828667798,-0.001785401872997904,0.1423705,-0.073659874,0.012585416,0.01688385
0.0,0.0,0.0,0.09112238,0.003007498,0.99583524,0.99565583,0.018890182,-0.09117422,0.019052202,-0.9998177,0.0012824254,0.11842954235076897,-0.09129211483299732,-0.04458466033935515,0.04058572993731782,-0.030597976498689443,-0.0019993981653296904,0.14436463,-0.073659874,0.012585416,0.016838074
0.0,0.0,0.0,0.09112238,0.003007498,0.99583524,0.99565583,0.018890182,-0.09117422,0.019052202,-0.9998177,0.0012824254,0.09688172740936274,-0.08650371151268482,0.06315441436767522,0.04086720992467805,-0.03087750517375942,-0.0016736291026646657,0.14436463,-0.073659874,0.012585416,0.016815186
0.0,0.0,0.0,0.09112238,0.003007498,0.99583524,0.99565583,0.018890182,-0.09117422,0.019052202,-0.9998177,0.0012824254,0.1256121473312377,-0.10086892147362232,-0.06613247528076194,0.04129093461171085,-0.031227462255258732,-0.001995923333555152,0.1464864,-0.0753637,0.012585416,0.01689148
0.0,0.0,0.0,0.09112238,0.003007498,0.99583524,0.99565583,0.018890182,-0.09117422,0.019052202,-0.9998177,0.0012824254,0.07293971080780026,-0.07213850155174732,-0.05416146697998059,0.041449178492691294,-0.03143201745174117,-0.0022567510517872793,0.1464864,-0.0753637,0.012585416,0.016868591
0.0,0.0,0.0,0.09112238,0.003007498,0.99583524,0.99565583,0.018890182,-0.09117422,0.019052202,-0.9998177,0.0012824254,0.06815130748748777,-0.09368631649315357,0.027241389465331167,0.041582689137665274,-0.03174328894694824,-0.002109260349201687,0.1464864,-0.0753637,0.012585416,0.016937256
0.0,0.0,0.0,0.09112238,0.003007498,0.99583524,0.99565583,0.018890182,-0.09117422,0.019052202,-0.9998177,0.0012824254,0.017873072624206454,-0.029042871668934822,0.08709643096923791,0.041464141055097985,-0.03172978686055817,-0.001663231892609489,0.1464864,-0.0753637,0.012585416,0.016845703
0.0,0.0,0.0,0.09112238,0.003007498,0.99583524,0.99565583,0.018890182,-0.09117422,0.019052202,-0.9998177,0.0012824254,0.06815130748748777,-0.11762833309471607,-0.06852667694091785,0.041597576887259936,-0.032159279591728956,-0.0019975491178510305,0.1464864,-0.07734344,0.012585416,0.016830444
0.0,0.0,0.0,0.09112238,0.003007498,0.99583524,0.99565583,0.018890182,-0.09117422,0.019052202,-0.9998177,0.0012824254,0.07772811412811276,-0.09129211483299732,-0.039796257019043324,0.0417782295734642,-0.0324549437679353,-0.002186542657356992,0.1464864,-0.07734344,0.012585416,0.016860962
0.0,0.0,0.0,0.09112238,0.003007498,0.99583524,0.99565583,0.018890182,-0.09117422,0.019052202,-0.9998177,0.0012824254,0.039420887565612794,-0.13438774471580983,-0.04937306365966876,0.041766442863424943,-0.03296460777267467,-0.002422475262368551,0.1464864,-0.0796196,0.012585416,0.016937256
0.0,0.0,0.0,0.09112238,0.003007498,0.99583524,0.99565583,0.018890182,-0.09117422,0.019052202,-0.9998177,0.0012824254,0.09927592906951899,-0.04819648495018482,-0.04937306365966876,0.04205399029445541,-0.03304076715856222,-0.002657228204355052,0.1464864,-0.0796196,0.012585416,0.016868591
0.0,0.0,0.0,0.09112238,0.003007498,0.99583524,0.99565583,0.018890182,-0.09117422,0.019052202,-0.9998177,0.0012824254,0.06815130748748777,0.011658556553721423,0.029635591125487082,0.042184476880420575,-0.0328172705400008,-0.0024957641077058413,0.1464864,-0.0796196,0.012585416,0.016853333
0.0,0.0,0.0,0.09112238,0.003007498,0.99583524,0.99565583,0.018890182,-0.09117422,0.019052202,-0.9998177,0.0012824254,0.11603534069061272,-0.08650371151268482,0.06315441436767522,0.042553731199471534,-0.03308570274486422,-0.002167513215328936,0.14843756,-0.0796196,0.012585416,0.016815186
0.0,0.0,0.0,0.09112238,0.003007498,0.99583524,0.99565583,0.018890182,-0.09117422,0.019052202,-0.9998177,0.0012824254,0.05378609752655028,-0.09608051815330981,-0.10683390350341782,0.04260989303110693,-0.03340067682190645,-0.0026908451667693803,0.14843756,-0.0796196,0.010783279,0.016868591
0.0,0.0,0.0,0.09112238,0.003007498,0.99583524,0.99565583,0.018890182,-0.09117422,0.019052202,-0.9998177,0.0012824254,0.048997694206237785,-0.03861967830955982,-0.04219045867919924,0.04264183203698259,-0.03342677182934471,-0.0028883432343315297,0.14843756,-0.0796196,0.010783279,0.016975403
0.0,0.0,0.0,0.09112238,0.003007498,0.99583524,0.99565583,0.018890182,-0.09117422,0.019052202,-0.9998177,0.0012824254,0.07054550914764401,-0.13438774471580983,-0.09965129852295007,0.0427813504225359,-0.033931576693777034,-0.0033721580107746226,0.14843756,-0.08188551,0.010783279,0.016860962
0.0,0.0,0.0,0.09112238,0.003007498,0.99583524,0.99565583,0.018890182,-0.09117422,0.019052202,-0.9998177,0.0012824254,0.11124693737030023,-0.09608051815330981,-0.06613247528076194,0.04312367835727472,-0.0342423214010747,-0.0036859595971245594,0.15037695,-0.08188551,0.010783279,0.017433167
0.0,0.0,0.0,0.09112238,0.003007498,0.99583524,0.99565583,0.018890182,-0.09117422,0.019052202,-0.9998177,0.0012824254,0.003507862663268968,-0.16072396297752856,-0.02064264373779423,0.04292559927880469,-0.03487472960895697,-0.0037707430178279076,0.15037695,-0.08461386,0.010783279,0.016975403
0.0,0.0,0.0,0.09112238,0.003007498,0.99583524,0.99565583,0.018890182,-0.09117422,0.019052202,-0.9998177,0.0012824254,0.060968702507019024,-0.00031245174705982204,-0.06852667694091785,0.04301581479494576,-0.034701918219647486,-0.004094522687443357,0.15037695,-0.08461386,0.010783279,0.01688385
0.0,0.0,0.0,0.09112238,0.003007498,0.99583524,0.99565583,0.018890182,-0.09117422,0.019052202,-0.9998177,0.0012824254,0.005902064323425216,-0.07453270321190357,-0.02543104705810606,0.04283024604258816,-0.03490107214460877,-0.004201205309296671,0.15037695,-0.08461386,0.010783279,0.016860962
0.0,0.0,0.0,0.09112238,0.003007498,0.99583524,0.99565583,0.018890182,-0.09117422,0.019052202,-0.9998177,0.0012824254,0.11603534069061272,-0.08410950985252857,-0.07092087860107554,0.04319627151582828,-0.03514711433314836,-0.004534803675755566,0.15233608,-0.08461386,0.010783279,0.01688385
0.0,0.0,0.0,0.09112238,0.003007498,0.99583524,0.99565583,0.018890182,-0.09117422,0.019052202,-0.9998177,0.0012824254,0.04181508922576904,-0.09129211483299732,-0.02064264373779423,0.04318936560437798,-0.03542783933564761,-0.004615342876065759,0.15233608,-0.08461386,0.010783279,0.01687622
0.0,0.0,0.0,0.09112238,0.003007498,0.99583524,0.99565583,0.018890182,-0.09117422,0.019052202,-0.9998177,0.0012824254,0.08730492076873775,-0.07692690487205982,0.04160659942626843,0.04340994338019978,-0.035635334663329674,-0.004384233164554088,0.15233608,-0.08461386,0.010783279,0.016921997
0.0,0.0,0.0,0.09112238,0.003007498,0.99583524,0.99565583,0.018890182,-0.09117422,0.019052202,-0.9998177,0.0012824254,0.03223828258514394,-0.02664867000877857,-0.08289188690185689,0.0433540850762245,-0.03559040134005692,-0.004776771433240601,0.15233608,-0.08461386,0.010783279,0.016822815
0.0,0.0,0.0,0.09112238,0.003007498,0.99583524,0.99565583,0.018890182,-0.09117422,0.019052202,-0.9998177,0.0012824254,0.13758315563201906,-0.13199354305565358,-0.023036845397950145,0.04382523042900347,-0.0360724170486349,-0.004868071803064149,0.15464851,-0.08683235,0.010783279,0.016807556
0.0,0.0,0.0,0.09112238,0.003007498,0.99583524,0.99565583,0.018890182,-0.09117422,0.019052202,-0.9998177,0.0012824254,0.080122315788269,-0.06974429989159106,0.008087776184082074,0.0440067158557998,-0.03624077646284968,-0.004803292563128418,0.15464851,-0.08683235,0.010783279,0.016792297
0.0,0.0,0.0,0.09112238,0.003007498,0.99583524,0.99565583,0.018890182,-0.09117422,0.019052202,-0.9998177,0.0012824254,0.15434256725311268,-0.09129211483299732,0.010481977844237989,0.044558395112786364,-0.036516033154700415,-0.004726866211091587,0.15726383,-0.08683235,0.010783279,0.016944885
0.0,0.0,0.0,0.09112238,0.003007498,0.99583524,0.99565583,0.018890182,-0.09117422,0.019052202,-0.9998177,0.0012824254,0.04420929088592529,-0.06016749325096607,-0.04219045867919924,0.04455664959165206,-0.036634290455181746,-0.004914184173432125,0.15726383,-0.08683235,0.010783279,0.01687622
0.0,0.0,0.0,0.09112238,0.003007498,0.99583524,0.99565583,0.018890182,-0.09117422,0.019052202,-0.9998177,0.0012824254,0.1304005506515502,-0.12241673641502857,0.008087776184082074,0.04498586909695155,-0.037063202684980985,-0.004849174371644553,0.15945753,-0.088891745,0.010783279,0.016822815
0.0,0.0,0.0,0.09112238,0.003007498,0.99583524,0.99565583,0.018890182,-0.09117422,0.019052202,-0.9998177,0.0012824254,0.04660349254608154,-0.05777329159080982,0.015270381164549818,0.044993957214197196,-0.03716675312951013,-0.0047485765939635815,0.15945753,-0.088891745,0.010783279,0.016868591
0.0,0.0,0.0,0.09112238,0.003007498,0.99583524,0.99565583,0.018890182,-0.09117422,0.019052202,-0.9998177,0.0012824254,0.1256121473312377,-0.10326312313377857,0.029635591125487082,0.0453970481647824,-0.037497234979531474,-0.004576655755366328,0.1615726,-0.090630494,0.010783279,0.016838074
0.0,0.0,0.0,0.09112238,0.003007498,0.99583524,0.99565583,0.018890182,-0.09117422,0.019052202,-0.9998177,0.0012824254,0.05618029918670653,-0.06495589657127857,0.020058784484863423,0.04545096441989201,-0.037634528287490206,-0.004453478554165179,0.1615726,-0.090630494,0.010783279,0.01687622
0.0,0.0,0.0,0.09112238,0.003007498,0.99583524,0.99565583,0.018890182,-0.09117422,0.019052202,-0.9998177,0.0012824254,0.12800634899139407,-0.08650371151268482,0.020058784484863423,0.04586374134274952,-0.03787887420361618,-0.004330917238970037,0.16373092,-0.090630494,0.010783279,0.016860962
0.0,0.0,0.0,0.09112238,0.003007498,0.99583524,0.99565583,0.018890182,-0.09117422,0.019052202,-0.9998177,0.0012824254,0.05378609752655028,-0.12481093807518481,-0.001489030456543361,0.04590335312366853,-0.03831353452297402,-0.0043167078050579035,0.16373092,-0.09273397,0.010783279,0.016853333
0.0,0.0,0.0,0.09112238,0.003007498,0.99583524,0.99565583,0.018890182,-0.09117422,0.019052202,-0.9998177,0.0012824254,0.10885273571014398,-0.05777329159080982,-0.03740205535888741,0.0462181000366009,-0.0384108333083132,-0.004482134542827051,0.16556047,-0.09273397,0.010783279,0.016807556
0.0,0.0,0.0,0.09112238,0.003007498,0.99583524,0.99565583,0.018890182,-0.09117422,0.019052202,-0.9998177,0.0012824254,-0.02043415393829351,-0.12241673641502857,0.005693574523924383,0.04588483876672643,-0.038830862823846776,-0.004431255997493294,0.16556047,-0.094799906,0.010783279,0.01687622
0.0,0.0,0.0,0.09112238,0.003007498,0.99583524,0.99565583,0.018890182,-0.09117422,0.019052202,-0.9998177,0.0012824254,0.09927592906951899,-0.05298488827049732,-0.03740205535888741,0.04615179421824039,-0.03890163295108003,-0.004596109994300265,0.16556047,-0.094799906,0.010783279,0.01689148
0.0,0.0,0.0,0.09112238,0.003007498,0.99583524,0.99565583,0.018890182,-0.09117422,0.019052202,-0.9998177,0.0012824254,0.04420929088592529,-0.10565732479393482,0.03921239776611252,0.04614208170157881,-0.03923541141029431,-0.004377067455498201,0.16556047,-0.09657656,0.010783279,0.016815186
0.0,0.0,0.0,0.09112238,0.003007498,0.99583524,0.99565583,0.018890182,-0.09117422,0.019052202,-0.9998177,0.0012824254,0.13758315563201906,-0.09368631649315357,0.022452986145019338,0.04659928707123101,-0.039507665935708605,-0.004242917187495613,0.16787186,-0.09657656,0.010783279,0.016799927
0.0,0.0,0.0,0.09112238,0.003007498,0.99583524,0.99565583,0.018890182,-0.09117422,0.019052202,-0.9998177,0.0012824254,-0.013251548957824766,-0.12481093807518481,-0.06134407196045011,0.04630003289108573,-0.03993418229640598,-0.004528422961360386,0.16787186,-0.09868385,0.010783279,0.01688385
0.0,0.0,0.0,0.09112238,0.003007498,0.99583524,0.99565583,0.018890182,-0.09117422,0.019052202,-0.9998177,0.0012824254,0.15194836559295655,-0.15114715633690357,-0.035007853698731495,0.04682827455459508,-0.04049024716660847,-0.004680820115047241,0.17053935,-0.10133728,0.010783279,0.017555237
0.0,0.0,0.0,0.09112238,0.003007498,0.99583524,0.99565583,0.018890182,-0.09117422,0.019052202,-0.9998177,0.0012824254,0.05139189586639403,-0.03143707332909107,-0.05416146697998059,0.04685109266115408,-0.040444981297420884,-0.004928223349371908,0.17053935,-0.10133728,0.010783279,0.016921997
0.0,0.0,0.0,0.09112238,0.003007498,0.99583524,0.99565583,0.018890182,-0.09117422,0.019052202,-0.9998177,0.0012824254,0.10645853404998773,-0.12241673641502857,-0.01346003875732471,0.047149129868098244,-0.04085484007300893,-0.004970882426411672,0.1723384,-0.10340601,0.010783279,0.016899109
0.0,0.0,0.0,0.09112238,0.003007498,0.99583524,0.99565583,0.018890182,-0.09117422,0.019052202,-0.9998177,0.0012824254,0.11364113903045647,-0.04819648495018482,0.03202979278564477,0.047481589913910036,-0.0408915482973948,-0.0047858790503513896,0.17425969,-0.10340601,0.010783279,0.016906738
0.0,0.0,0.0,0.09112238,0.003007498,0.99583524,0.99565583,0.018890182,-0.09117422,0.019052202,-0.9998177,0.0012824254,0.06575710582733152,-0.07932110653221608,-0.04219045867919924,0.04757296749347714,-0.04108369608856891,-0.0049729019484956285,0.17425969,-0.10340601,0.010783279,0.016944885
0.0,0.0,0.0,0.09112238,0.003007498,0.99583524,0.99565583,0.018890182,-0.09117422,0.019052202,-0.9998177,0.0012824254,0.04420929088592529,-0.09129211483299732,0.08709643096923791,0.047556149110439386,-0.04133473818229105,-0.00451255528390696,0.17425969,-0.10340601,0.010783279,0.01687622
0.0,0.0,0.0,0.09112238,0.003007498,0.99583524,0.99565583,0.018890182,-0.09117422,0.019052202,-0.9998177,0.0012824254,-0.00846314563751227,-0.15114715633690357,-0.06373827362060602,0.04727605263669963,-0.04188380027306411,-0.004808683875590455,0.17425969,-0.10595565,0.010783279,0.016868591
0.0,0.0,0.0,0.09112238,0.003007498,0.99583524,0.99565583,0.018890182,-0.09117422,0.019052202,-0.9998177,0.0012824254,0.04660349254608154,-0.033831274989247324,-0.05416146697998059,0.04727268983624654,-0.04184353764664503,-0.005055447791112406,0.17425969,-0.10595565,0.010783279,0.01689148
0.0,0.0,0.0,0.09112238,0.003007498,0.99583524,0.99565583,0.018890182,-0.09117422,0.019052202,-0.9998177,0.0012824254,0.07533391246795651,-0.05298488827049732,-0.02064264373779423,0.04741299594940509,-0.04189924439976429,-0.005133383770845815,0.17425969,-0.10595565,0.010783279,0.016906738
0.0,0.0,0.0,0.09112238,0.003007498,0.99583524,0.99565583,0.018890182,-0.09117422,0.019052202,-0.9998177,0.0012824254,0.15434256725311268,-0.05298488827049732,-0.03740205535888741,0.047947643805923625,-0.041954672619117964,-0.005294727128786023,0.17685853,-0.10595565,0.010783279,0.016838074
0.0,0.0,0.0,0.09112238,0.003007498,0.99583524,0.99565583,0.018890182,-0.09117422,0.019052202,-0.9998177,0.0012824254,0.10406433238983148,-0.12959934139549734,-0.00627743377685519,0.04822822724884317,-0.04239289596299986,-0.005299640662026369,0.17861395,-0.10814181,0.010783279,0.016868591
0.0,0.0,0.0,0.09112238,0.003007498,0.99583524,0.99565583,0.018890182,-0.09117422,0.019052202,-0.9998177,0.0012824254,0.058574500846862776,-0.06974429989159106,0.07033701934814474,0.04827995861683326,-0.042529652982642815,-0.0049214573619755135,0.17861395,-0.10814181,0.010783279,0.01688385
0.0,0.0,0.0,0.09112238,0.003007498,0.99583524,0.99565583,0.018890182,-0.09117422,0.019052202,-0.9998177,0.0012824254,0.09209332408905024,-0.05777329159080982,0.11343264923095653,0.04849902544419435,-0.04260587117568365,-0.004329686829010854,0.17861395,-0.10814181,0.01270019,0.016899109
0.0,0.0,0.0,0.09112238,0.003007498,0.99583524,0.99565583,0.018890182,-0.09117422,0.019052202,-0.9998177,0.0012824254,0.12800634899139407,-0.10805152645409107,0.09667323760986335,0.04889656206193035,-0.042933099452075685,-0.003824672206816483,0.18078007,-0.10997026,0.01270019,0.016921997
0.0,0.0,0.0,0.09112238,0.003007498,0.99583524,0.99565583,0.018890182,-0.09117422,0.019052202,-0.9998177,0.0012824254,0.0011136610031127203,-0.06495589657127857,-0.0565556686401365,0.04865764755663626,-0.043043213437671694,-0.004088327188983083,0.18078007,-0.10997026,0.01270019,0.016822815
0.0,0.0,0.0,0.09112238,0.003007498,0.99583524,0.99565583,0.018890182,-0.09117422,0.019052202,-0.9998177,0.0012824254,0.1447657606124877,0.011658556553721423,-0.02064264373779423,0.04913818812191552,-0.04276970458771473,-0.004171098771727139,0.18321101,-0.10997026,0.01270019,0.016792297
0.0,0.0,0.0,0.09112238,0.003007498,0.99583524,0.99565583,0.018890182,-0.09117422,0.019052202,-0.9998177,0.0012824254,0.11124693737030023,-0.05059068661034107,0.055971809387205695,0.049448731868157444,-0.04280880949782786,-0.0038703842309324747,0.18508844,-0.10997026,0.01270019,0.01687622
0.0,0.0,0.0,0.09112238,0.003007498,0.99583524,0.99565583,0.018890182,-0.09117422,0.019052202,-0.9998177,0.0012824254,0.09927592906951899,-0.07453270321190357,-0.00627743377685519,0.04969786785416425,-0.042967428966398234,-0.003882419478662088,0.18508844,-0.10997026,0.01270019,0.016899109
0.0,0.0,0.0,0.09112238,0.003007498,0.99583524,0.99565583,0.018890182,-0.09117422,0.019052202,-0.9998177,0.0012824254,0.03463248424530019,-0.07213850155174732,-0.046978861999512844,0.04962254093611993,-0.04311328432932498,-0.004097901691266342,0.18508844,-0.10997026,0.01270019,0.016838074
0.0,0.0,0.0,0.09112238,0.003007498,0.99583524,0.99565583,0.018890182,-0.09117422,0.019052202,-0.9998177,0.0012824254,0.06815130748748777,-0.07453270321190357,-0.02064264373779423,0.04971518476887677,-0.04327038142373787,-0.004180625401498981,0.18508844,-0.10997026,0.01270019,0.016853333
0.0,0.0,0.0,0.09112238,0.003007498,0.99583524,0.99565583,0.018890182,-0.09117422,0.019052202,-0.9998177,0.0012824254,0.10406433238983148,-0.06974429989159106,0.06794281768798704,0.049986930506981546,-0.043402751016077136,-0.003820008186051551,0.18684465,-0.10997026,0.01270019,0.01687622
0.0,0.0,0.0,0.09112238,0.003007498,0.99583524,0.99565583,0.018890182,-0.09117422,0.019052202,-0.9998177,0.0012824254,0.1256121473312377,-0.08171530819237233,0.012876179504393903,0.050365056591102825,-0.043594313801958606,-0.0037365272475993238,0.1889645,-0.10997026,0.01270019,0.01687622
0.0,0.0,0.0,0.09112238,0.003007498,0.99583524,0.99565583,0.018890182,-0.09117422,0.019052202,-0.9998177,0.0012824254,0.11603534069061272,-0.07932110653221608,-0.07092087860107554,0.05069340801160037,-0.043772947765609894,-0.004072449004366705,0.19093248,-0.10997026,0.01270019,0.016960144
0.0,0.0,0.0,0.09112238,0.003007498,0.99583524,0.99565583,0.018890182,-0.09117422,0.019052202,-0.9998177,0.0012824254,0.1256121473312377,-0.08650371151268482,0.022452986145019338,0.05106800170819856,-0.043986601584345274,-0.003939821828619774,0.19312134,-0.10997026,0.01270019,0.017425537
0.0,0.0,0.0,0.09112238,0.003007498,0.99583524,0.99565583,0.018890182,-0.09117422,0.019052202,-0.9998177,0.0012824254,0.029844080924987693,-0.08171530819237233,0.005693574523924383,0.0509618821042825,-0.04417524511738541,-0.0038916548468570533,0.19312134,-0.10997026,0.01270019,0.01688385
0.0,0.0,0.0,0.09112238,0.003007498,0.99583524,0.99565583,0.018890182,-0.09117422,0.019052202,-0.9998177,0.0012824254,0.18067878551483152,-0.07213850155174732,0.029635591125487082,0.05161046662133525,-0.044315061399557217,-0.0037240186169953324,0.19617328,-0.10997026,0.01270019,0.01689148
0.0,0.0,0.0,0.09112238,0.003007498,0.99583524,0.99565583,0.018890182,-0.09117422,0.019052202,-0.9998177,0.0012824254,0.07054550914764401,-0.06256169491112232,0.04878920440673795,0.051705141833966795,-0.04440629456711505,-0.003461452501876666,0.19617328,-0.10997026,0.01270019,0.01687622
0.0,0.0,0.0,0.09112238,0.003007498,0.99583524,0.99565583,0.018890182,-0.09117422,0.019052202,-0.9998177,0.0012824254,0.16391937389373767,-0.12002253475487232,-0.046978861999512844,0.05226621299426565,-0.04478437576805384,-0.003679039549364847,0.19893587,-0.11199304,0.01270019,0.016853333
0.0,0.0,0.0,0.09112238,0.003007498,0.99583524,0.99565583,0.018890182,-0.09117422,0.019052202,-0.9998177,0.0012824254,0.058574500846862776,-0.08889791317284107,0.0607602127075193,0.05229775443352863,-0.04500494345507777,-0.0033568432880804262,0.19893587,-0.11199304,0.01270019,0.016853333
0.0,0.0,0.0,0.09112238,0.003007498,0.99583524,0.99565583,0.018890182,-0.09117422,0.019052202,-0.9998177,0.0012824254,0.14237155895233156,-0.1583297613173723,0.08709643096923791,0.05274812345612264,-0.04557156754438924,-0.0029045769167938343,0.20133856,-0.11466505,0.01270019,0.01687622
0.0,0.0,0.0,0.09112238,0.003007498,0.99583524,0.99565583,0.018890182,-0.09117422,0.019052202,-0.9998177,0.0012824254,0.04420929088592529,-0.11523413143455982,-0.03740205535888741,0.052705429293271655,-0.04591988036384009,-0.003077064309004302,0.20133856,-0.1166124,0.01270019,0.016899109
0.0,0.0,0.0,0.09112238,0.003007498,0.99583524,0.99565583,0.018890182,-0.09117422,0.019052202,-0.9998177,0.0012824254,0.11603534069061272,-0.06016749325096607,-0.008671635437012881,0.05302207885025836,-0.045991118428275725,-0.0031050371646443448,0.20329857,-0.1166124,0.01270019,0.01689148
0.0,0.0,0.0,0.09112238,0.003007498,0.99583524,0.99565583,0.018890182,-0.09117422,0.019052202,-0.9998177,0.0012824254,0.05139189586639403,-0.09847471981346607,0.04160659942626843,0.05301392793533904,-0.04625353643520167,-0.002881478981689781,0.20329857,-0.1166124,0.01270019,0.017372131
0.0,0.0,0.0,0.09112238,0.003007498,0.99583524,0.99565583,0.018890182,-0.09117422,0.019052202,-0.9998177,0.0012824254,0.07772811412811276,-0.07932110653221608,-0.023036845397950145,0.05313749886630291,-0.046418874285686744,-0.0029822558137710827,0.20329857,-0.1166124,0.01270019,0.016967773
0.0,0.0,0.0,0.09112238,0.003007498,0.99583524,0.99565583,0.018890182,-0.09117422,0.019052202,-0.9998177,0.0012824254,0.195043995475769,-0.05298488827049732,0.04878920440673795,0.05384703134935024,-0.0464517043556108,-0.0027233985126685375,0.20661399,-0.1166124,0.01270019,0.016998291
0.0,0.0,0.0,0.09112238,0.003007498,0.99583524,0.99565583,0.018890182,-0.09117422,0.019052202,-0.9998177,0.0012824254,0.06815130748748777,-0.14875295467674732,0.0009051712036125537,0.053918552730040925,-0.046963210607216484,-0.002705255664087132,0.20661399,-0.11912392,0.01270019,0.01688385
0.0,0.0,0.0,0.09112238,0.003007498,0.99583524,0.99565583,0.018890182,-0.09117422,0.019052202,-0.9998177,0.0012824254,0.09688172740936274,-0.06974429989159106,0.04639500274658204,0.05413336860343754,-0.04707711605363836,-0.002459754372033786,0.20661399,-0.11912392,0.01270019,0.016822815
0.0,0.0,0.0,0.09112238,0.003007498,0.99583524,0.99565583,0.018890182,-0.09117422,0.019052202,-0.9998177,0.0012824254,-0.003674742317199775,-0.16072396297752856,-0.06852667694091785,0.05384432804883435,-0.04764535028825781,-0.002790088984878206,0.20661399,-0.12183143,0.01270019,0.016845703
0.0,0.0,0.0,0.09112238,0.003007498,0.99583524,0.99565583,0.018890182,-0.09117422,0.019052202,-0.9998177,0.0012824254,0.12800634899139407,-0.11283992977440356,-0.01824844207763654,0.05421513815354715,-0.04797132318568854,-0.0028673807503419974,0.20883773,-0.1237917,0.01270019,0.017372131
0.0,0.0,0.0,0.09112238,0.003007498,0.99583524,0.99565583,0.018890182,-0.09117422,0.019052202,-0.9998177,0.0012824254,0.05139189586639403,-0.041013879969716074,0.0032993728637684683,0.054201021942111384,-0.04793653596960867,-0.0028365469822714453,0.20883773,-0.1237917,0.01270019,0.01687622
0.0,0.0,0.0,0.09112238,0.003007498,0.99583524,0.99565583,0.018890182,-0.09117422,0.019052202,-0.9998177,0.0012824254,0.17589038219451902,-0.05777329159080982,0.03202979278564477,0.05480946874337342,-0.04798571974771468,-0.0026622152834318642,0.21180476,-0.1237917,0.01270019,0.016868591
0.0,0.0,0.0,0.09112238,0.003007498,0.99583524,0.99565583,0.018890182,-0.09117422,0.019052202,-0.9998177,0.0012824254,0.037026685905456436,-0.07692690487205982,-0.06373827362060602,0.05472055482918383,-0.048130425673336405,-0.002967595575117735,0.21180476,-0.1237917,0.01270019,0.016845703
0.0,0.0,0.0,0.09112238,0.003007498,0.99583524,0.99565583,0.018890182,-0.09117422,0.019052202,-0.9998177,0.0012824254,0.10885273571014398,-0.07453270321190357,0.07273122100830065,0.05499121573358863,-0.04826243706102924,-0.002589101492200643,0.21364261,-0.1237917,0.01270019,0.01688385
0.0,0.0,0.0,0.09112238,0.003007498,0.99583524,0.99565583,0.018890182,-0.09117422,0.019052202,-0.9998177,0.0012824254,0.003507862663268968,-0.07932110653221608,-0.011065837097168796,0.05473379896823703,-0.04841773040838518,-0.0026314851702254837,0.21364261,-0.1237917,0.01270019,0.016830444
0.0,0.0,0.0,0.09112238,0.003007498,0.99583524,0.99565583,0.018890182,-0.09117422,0.019052202,-0.9998177,0.0012824254,0.12321794567108157,-0.08889791317284107,-0.04458466033935515,0.05507621970175126,-0.04862013132220745,-0.002841251046071132,0.21572207,-0.1237917,0.01270019,0.01687622
0.0,0.0,0.0,0.09112238,0.003007498,0.99583524,0.99565583,0.018890182,-0.09117422,0.019052202,-0.9998177,0.0012824254,0.029844080924987693,-0.03622547664940357,-0.00627743377685519,0.05495005900786744,-0.04855815804884343,-0.0028584319597250523,0.21572207,-0.1237917,0.01270019,0.016914368
