GyroX,GyroY,GyroZ,ExpGravityX,ExpGravityY,ExpGravityZ,ExpOxX,ExpOxY,ExpOxZ,ExpOyX,ExpOyY,ExpOyZ,AccX,AccY,AccZ,ExpSpeedX,ExpSpeedY,ExpSpeedZ,dT
0.0,0.0,0.0,0.10389371,-0.021239169,0.99436164,0.99458843,0.0022186225,-0.103870034,0.0,-0.99977195,-0.021354731,0.8595183959960937,-0.17238251953125,8.221688500976562,0.0,0.0,0.0,0.0043945312
0.0,0.0,0.0,0.10389371,-0.021239169,0.99436164,0.99458843,0.0022186225,-0.103870034,0.0,-0.99977195,-0.021354731,0.8858546142578124,-0.18435352783203124,8.264784130859374,0.0,0.0,0.0,0.015991211
0.0,0.0,0.0,0.10389371,-0.021239169,0.99436164,0.99458843,0.0022186225,-0.103870034,0.0,-0.99977195,-0.021354731,0.8379705810546875,-0.181959326171875,8.24802471923828,0.0,0.0,0.0,0.01586914
0.0,0.0,0.0,0.10389371,-0.021239169,0.99436164,0.99458843,0.0022186225,-0.103870034,0.0,-0.99977195,-0.021354731,0.8954314208984374,-0.15083470458984374,8.343792785644531,0.0,0.0,0.0,0.01574707
0.0,0.0,0.0,0.10389371,-0.021239169,0.99436164,0.99458843,0.0022186225,-0.103870034,0.0,-0.99977195,-0.021354731,0.9026140258789062,-0.22744915771484372,8.336610180664062,0.0,0.0,0.0,0.01574707
0.0,0.0,0.0,0.10389371,-0.021239169,0.99436164,0.99458843,0.0022186225,-0.103870034,0.0,-0.99977195,-0.021354731,0.8547299926757812,-0.22266075439453123,8.310273962402343,0.0,0.0,0.0,0.01586914
0.0,0.0,0.0,0.10389371,-0.021239169,0.99436164,0.99458843,0.0022186225,-0.103870034,0.0,-0.99977195,-0.021354731,0.86191259765625,-0.24181436767578124,8.281543542480469,0.0,0.0,0.0,0.01574707
0.0,0.0,0.0,0.10389371,-0.021239169,0.99436164,0.99458843,0.0022186225,-0.103870034,0.0,-0.99977195,-0.021354731,0.7852981445312499,-0.15083470458984374,8.226476904296874,0.0,0.0,0.0,0.01586914
0.0,0.0,0.0,0.10389371,-0.021239169,0.99436164,0.99458843,0.0022186225,-0.103870034,0.0,-0.99977195,-0.021354731,0.8451531860351562,-0.19871873779296872,8.271966735839843,0.0,0.0,0.0,0.01574707
0.0,0.0,0.0,0.10389371,-0.021239169,0.99436164,0.99458843,0.0022186225,-0.103870034,0.0,-0.99977195,-0.021354731,0.8643067993164062,-0.18435352783203124,8.252813122558594,0.0,0.0,0.0,0.01586914
0.0,0.0,0.0,0.10389371,-0.021239169,0.99436164,0.99458843,0.0022186225,-0.103870034,0.0,-0.99977195,-0.021354731,0.8906430175781249,-0.20829554443359374,8.161833459472655,0.0,0.0,0.0,0.01574707
0.0,0.0,0.0,0.10389371,-0.021239169,0.99436164,0.99458843,0.0022186225,-0.103870034,0.0,-0.99977195,-0.021354731,0.9361328491210937,-0.18914193115234373,8.219294299316406,0.0,0.0,0.0,0.016113281
0.0,0.0,0.0,0.10389371,-0.021239169,0.99436164,0.99458843,0.0022186225,-0.103870034,0.0,-0.99977195,-0.021354731,0.8595183959960937,-0.15322890625,8.262389929199218,0.0,0.0,0.0,0.01586914
0.0,0.0,0.0,0.10389371,-0.021239169,0.99436164,0.99458843,0.0022186225,-0.103870034,0.0,-0.99977195,-0.021354731,0.8834604125976562,-0.20350714111328125,8.317456567382813,0.0,0.0,0.0,0.01586914
0.0,0.0,0.0,0.10389371,-0.021239169,0.99436164,0.99458843,0.0022186225,-0.103870034,0.0,-0.99977195,-0.021354731,0.8571241943359375,-0.15083470458984374,8.228871105957031,0.0,0.0,0.0,0.01574707
0.0,0.0,0.0,0.10389371,-0.021239169,0.99436164,0.99458843,0.0022186225,-0.103870034,0.0,-0.99977195,-0.021354731,0.8595183959960937,-0.16519991455078123,8.279149340820313,0.0,0.0,0.0,0.01574707
0.0,0.0,0.0,0.10389371,-0.021239169,0.99436164,0.99458843,0.0022186225,-0.103870034,0.0,-0.99977195,-0.021354731,0.9074024291992187,-0.14125789794921875,8.276755139160155,0.0,0.0,0.0,0.01574707
0.0,0.0,0.0,0.10389371,-0.021239169,0.99436164,0.99458843,0.0022186225,-0.103870034,0.0,-0.99977195,-0.021354731,0.8307879760742187,-0.19393033447265623,8.259995727539062,0.0,0.0,0.0,0.01574707
0.0,0.0,0.0,0.10389371,-0.021239169,0.99436164,0.99458843,0.0022186225,-0.103870034,0.0,-0.99977195,-0.021354731,0.9074024291992187,-0.1867477294921875,8.279149340820313,0.0,0.0,0.0,0.01574707
0.0,0.0,0.0,0.10389371,-0.021239169,0.99436164,0.99458843,0.0022186225,-0.103870034,0.0,-0.99977195,-0.021354731,0.8547299926757812,-0.14604630126953125,8.200140686035155,0.0,0.0,0.0,0.01574707
0.0,0.0,0.0,0.10389371,-0.021239169,0.99436164,0.99458843,0.0022186225,-0.103870034,0.0,-0.99977195,-0.021354731,0.9193734375,-0.201112939453125,8.298302954101562,0.0,0.0,0.0,0.01574707
0.0,0.0,0.0,0.10389371,-0.021239169,0.99436164,0.99458843,0.0022186225,-0.103870034,0.0,-0.99977195,-0.021354731,0.8762778076171874,-0.143652099609375,8.188169677734374,0.0,0.0,0.0,0.01574707
0.0,0.0,0.0,0.10389371,-0.021239169,0.99436164,0.99458843,0.0022186225,-0.103870034,0.0,-0.99977195,-0.021354731,0.8978256225585937,-0.18435352783203124,8.228871105957031,0.0,0.0,0.0,0.01574707
0.0,0.0,0.0,0.10389371,-0.021239169,0.99436164,0.99458843,0.0022186225,-0.103870034,0.0,-0.99977195,-0.021354731,0.8547299926757812,-0.15322890625,8.207323291015625,0.0,0.0,0.0,0.01574707
0.0,0.0,0.0,0.10389371,-0.021239169,0.99436164,0.99458843,0.0022186225,-0.103870034,0.0,-0.99977195,-0.021354731,0.8882488159179687,-0.17477672119140625,8.283937744140625,0.0,0.0,0.0,0.01574707
0.0,0.0,0.0,0.10389371,-0.021239169,0.99436164,0.99458843,0.0022186225,-0.103870034,0.0,-0.99977195,-0.021354731,0.7996633544921875,-0.1580173095703125,8.173804467773436,0.0,0.0,0.0,0.01574707
0.0,0.0,0.0,0.10389371,-0.021239169,0.99436164,0.99458843,0.0022186225,-0.103870034,0.0,-0.99977195,-0.021354731,0.8810662109374999,-0.19871873779296872,8.257601525878906,0.0,0.0,0.0,0.01574707
0.0,0.0,0.0,0.10389371,-0.021239169,0.99436164,0.99458843,0.0022186225,-0.103870034,0.0,-0.99977195,-0.021354731,0.8259995727539062,-0.1197100830078125,8.221688500976562,0.0,0.0,0.0,0.01574707
0.0,0.0,0.0,0.10389371,-0.021239169,0.99436164,0.99458843,0.0022186225,-0.103870034,0.0,-0.99977195,-0.021354731,0.852335791015625,-0.13407529296874998,8.238447912597655,0.0,0.0,0.0,0.01574707
0.0,0.0,0.0,0.10389371,-0.021239169,0.99436164,0.99458843,0.0022186225,-0.103870034,0.0,-0.99977195,-0.021354731,0.9457096557617187,-0.19871873779296872,8.243236315917969,0.0,0.0,0.0,0.01586914
0.0,0.0,0.0,0.10389371,-0.021239169,0.99436164,0.99458843,0.0022186225,-0.103870034,0.0,-0.99977195,-0.021354731,0.8882488159179687,-0.19871873779296872,8.157045056152343,0.0,0.0,0.0,0.01574707
0.0,0.0,0.0,0.10389371,-0.021239169,0.99436164,0.99458843,0.0022186225,-0.103870034,0.0,-0.99977195,-0.021354731,0.8403647827148437,-0.21787235107421873,8.28633194580078,0.0,0.0,0.0,0.01574707
0.0,0.0,0.0,0.10389371,-0.021239169,0.99436164,0.99458843,0.0022186225,-0.103870034,0.0,-0.99977195,-0.021354731,0.8379705810546875,-0.16519991455078123,8.259995727539062,0.0,0.0,0.0,0.01586914
0.0,0.0,0.0,0.10389371,-0.021239169,0.99436164,0.99458843,0.0022186225,-0.103870034,0.0,-0.99977195,-0.021354731,0.8810662109374999,-0.19871873779296872,8.221688500976562,0.0,0.0,0.0,0.01574707
0.0,0.0,0.0,0.10389371,-0.021239169,0.99436164,0.99458843,0.0022186225,-0.103870034,0.0,-0.99977195,-0.021354731,0.8451531860351562,-0.16041151123046873,8.295908752441406,0.0,0.0,0.0,0.015991211
0.0,0.0,0.0,0.10389371,-0.021239169,0.99436164,0.99458843,0.0022186225,-0.103870034,0.0,-0.99977195,-0.021354731,0.8068459594726562,-0.143652099609375,8.267178332519531,0.0,0.0,0.0,0.01574707
0.0,0.0,0.0,0.10389371,-0.021239169,0.99436164,0.99458843,0.0022186225,-0.103870034,0.0,-0.99977195,-0.021354731,0.8283937744140625,-0.181959326171875,8.303091357421874,0.0,0.0,0.0,0.01574707
0.0,0.0,0.0,0.10389371,-0.021239169,0.99436164,0.99458843,0.0022186225,-0.103870034,0.0,-0.99977195,-0.021354731,0.9074024291992187,-0.15562310791015624,8.24802471923828,0.0,0.0,0.0,0.01574707
0.0,0.0,0.0,0.10389371,-0.021239169,0.99436164,0.99458843,0.0022186225,-0.103870034,0.0,-0.99977195,-0.021354731,0.8068459594726562,-0.239420166015625,8.173804467773436,0.0,0.0,0.0,0.01574707
0.0,0.0,0.0,0.10389371,-0.021239169,0.99436164,0.99458843,0.0022186225,-0.103870034,0.0,-0.99977195,-0.021354731,0.8595183959960937,-0.14604630126953125,8.145074047851562,0.0,0.0,0.0,0.01574707
0.0,0.0,0.0,0.10389371,-0.021239169,0.99436164,0.99458843,0.0022186225,-0.103870034,0.0,-0.99977195,-0.021354731,0.9217676391601562,-0.1580173095703125,8.21690009765625,0.0,0.0,0.0,0.01574707
0.0,0.0,0.0,0.10389371,-0.021239169,0.99436164,0.99458843,0.0022186225,-0.103870034,0.0,-0.99977195,-0.021354731,0.928950244140625,-0.15322890625,8.310273962402343,0.0,0.0,0.0,0.01574707
0.0,0.0,0.0,0.10389371,-0.021239169,0.99436164,0.99458843,0.0022186225,-0.103870034,0.0,-0.99977195,-0.021354731,0.8643067993164062,-0.19393033447265623,8.250418920898436,0.0,0.0,0.0,0.01574707
0.0,0.0,0.0,0.10389371,-0.021239169,0.99436164,0.99458843,0.0022186225,-0.103870034,0.0,-0.99977195,-0.021354731,0.82360537109375,-0.1771709228515625,8.271966735839843,0.0,0.0,0.0,0.01574707
0.0,0.0,0.0,0.10389371,-0.021239169,0.99436164,0.99458843,0.0022186225,-0.103870034,0.0,-0.99977195,-0.021354731,0.9313444458007812,-0.18914193115234373,8.250418920898436,0.0,0.0,0.0,0.01574707
0.0,0.0,0.0,0.10389371,-0.021239169,0.99436164,0.99458843,0.0022186225,-0.103870034,0.0,-0.99977195,-0.021354731,0.852335791015625,-0.19871873779296872,8.267178332519531,0.0,0.0,0.0,0.01574707
0.0,0.0,0.0,0.10389371,-0.021239169,0.99436164,0.99458843,0.0022186225,-0.103870034,0.0,-0.99977195,-0.021354731,0.8571241943359375,-0.21068974609375,8.24802471923828,0.0,0.0,0.0,0.01574707
0.0,0.0,0.0,0.10389371,-0.021239169,0.99436164,0.99458843,0.0022186225,-0.103870034,0.0,-0.99977195,-0.021354731,0.8475473876953125,-0.1484405029296875,8.157045056152343,0.0,0.0,0.0,0.01574707
0.0,0.0,0.0,0.10389371,-0.021239169,0.99436164,0.99458843,0.0022186225,-0.103870034,0.0,-0.99977195,-0.021354731,0.8212111694335937,-0.16280571289062498,8.28633194580078,0.0,0.0,0.0,0.01574707
0.0,0.0,0.0,0.10389371,-0.021239169,0.99436164,0.99458843,0.0022186225,-0.103870034,0.0,-0.99977195,-0.021354731,0.8571241943359375,-0.18435352783203124,8.202534887695313,0.0,0.0,0.0,0.01574707
0.0,0.0,0.0,0.10389371,-0.021239169,0.99436164,0.99458843,0.0022186225,-0.103870034,0.0,-0.99977195,-0.021354731,0.9265560424804687,-0.13168109130859373,8.252813122558594,0.0,0.0,0.0,0.01574707
0.0,0.0,0.0,0.10389371,-0.021239169,0.99436164,0.99458843,0.0022186225,-0.103870034,0.0,-0.99977195,-0.021354731,0.8810662109374999,-0.19632453613281248,8.212111694335936,0.0,0.0,0.0,0.01574707
0.0,0.0,0.0,0.10389371,-0.021239169,0.99436164,0.99458843,0.0022186225,-0.103870034,0.0,-0.99977195,-0.021354731,0.8451531860351562,-0.20350714111328125,8.207323291015625,0.0,0.0,0.0,0.01574707
0.0,0.0,0.0,0.10389371,-0.021239169,0.99436164,0.99458843,0.0022186225,-0.103870034,0.0,-0.99977195,-0.021354731,0.8690952026367187,-0.17477672119140625,8.226476904296874,0.0,0.0,0.0,0.01574707
0.0,0.0,0.0,0.10389371,-0.021239169,0.99436164,0.99458843,0.0022186225,-0.103870034,0.0,-0.99977195,-0.021354731,0.8451531860351562,-0.22744915771484372,8.20971749267578,0.0,0.0,0.0,0.01574707
0.0,0.0,0.0,0.10389371,-0.021239169,0.99436164,0.99458843,0.0022186225,-0.103870034,0.0,-0.99977195,-0.021354731,0.8906430175781249,-0.1580173095703125,8.288726147460936,0.0,0.0,0.0,0.01574707
0.0,0.0,0.0,0.10389371,-0.021239169,0.99436164,0.99458843,0.0022186225,-0.103870034,0.0,-0.99977195,-0.021354731,0.833182177734375,-0.16280571289062498,8.276755139160155,0.0,0.0,0.0,0.01574707
0.0,0.0,0.0,0.10389371,-0.021239169,0.99436164,0.99458843,0.0022186225,-0.103870034,0.0,-0.99977195,-0.021354731,0.8978256225585937,-0.20350714111328125,8.267178332519531,0.0,0.0,0.0,0.01574707
0.0,0.0,0.0,0.10389371,-0.021239169,0.99436164,0.99458843,0.0022186225,-0.103870034,0.0,-0.99977195,-0.021354731,0.9002198242187499,-0.20350714111328125,8.185775476074218,0.0,0.0,0.0,0.015991211
0.0,0.0,0.0,0.10389371,-0.021239169,0.99436164,0.99458843,0.0022186225,-0.103870034,0.0,-0.99977195,-0.021354731,0.8643067993164062,-0.16759411621093748,8.231265307617187,0.0,0.0,0.0,0.01574707
0.0,0.0,0.0,0.10389371,-0.021239169,0.99436164,0.99458843,0.0022186225,-0.103870034,0.0,-0.99977195,-0.021354731,0.8690952026367187,-0.17477672119140625,8.2743609375,0.0,0.0,0.0,0.01574707
0.0,0.0,0.0,0.10389371,-0.021239169,0.99436164,0.99458843,0.0022186225,-0.103870034,0.0,-0.99977195,-0.021354731,0.9241618408203125,-0.09816226806640624,8.224082702636718,0.0,0.0,0.0,0.01574707
0.0,0.0,0.0,0.10389371,-0.021239169,0.99436164,0.99458843,0.0022186225,-0.103870034,0.0,-0.99977195,-0.021354731,0.8092401611328125,-0.12449848632812499,8.315062365722655,0.0,0.0,0.0,0.01574707
0.0,0.0,0.0,0.10389371,-0.021239169,0.99436164,0.99458843,0.0022186225,-0.103870034,0.0,-0.99977195,-0.021354731,0.8116343627929687,-0.18914193115234373,8.238447912597655,0.0,0.0,0.0,0.01574707
0.0,0.0,0.0,0.10389371,-0.021239169,0.99436164,0.99458843,0.0022186225,-0.103870034,0.0,-0.99977195,-0.021354731,0.8738836059570312,-0.22026655273437498,8.233659509277343,0.0,0.0,0.0,0.01574707
0.0,0.0,0.0,0.10389371,-0.021239169,0.99436164,0.99458843,0.0022186225,-0.103870034,0.0,-0.99977195,-0.021354731,0.8355763793945312,-0.20829554443359374,8.154650854492187,0.0,0.0,0.0,0.01574707
0.0,0.0,0.0,0.10389371,-0.021239169,0.99436164,0.99458843,0.0022186225,-0.103870034,0.0,-0.99977195,-0.021354731,0.9002198242187499,-0.11252747802734374,8.219294299316406,0.0,0.0,0.0,0.01574707
0.0,0.0,0.0,0.10389371,-0.021239169,0.99436164,0.99458843,0.0022186225,-0.103870034,0.0,-0.99977195,-0.021354731,0.8068459594726562,-0.24660277099609373,8.291120349121094,0.0,0.0,0.0,0.01574707
0.0,0.0,0.0,0.10389371,-0.021239169,0.99436164,0.99458843,0.0022186225,-0.103870034,0.0,-0.99977195,-0.021354731,0.8714894042968749,-0.229843359375,8.276755139160155,0.0,0.0,0.0,0.01574707
0.0,0.0,0.0,0.10389371,-0.021239169,0.99436164,0.99458843,0.0022186225,-0.103870034,0.0,-0.99977195,-0.021354731,0.8212111694335937,-0.181959326171875,8.295908752441406,0.0,0.0,0.0,0.01574707
0.0,0.0,0.0,0.10389371,-0.021239169,0.99436164,0.99458843,0.0022186225,-0.103870034,0.0,-0.99977195,-0.021354731,0.8714894042968749,-0.1484405029296875,8.281543542480469,0.0,0.0,0.0,0.015625
0.0,0.0,0.0,0.10389371,-0.021239169,0.99436164,0.99458843,0.0022186225,-0.103870034,0.0,-0.99977195,-0.021354731,0.8786720092773437,-0.19871873779296872,8.233659509277343,0.0,0.0,0.0,0.01574707
0.0,0.0,0.0,0.10389371,-0.021239169,0.99436164,0.99458843,0.0022186225,-0.103870034,0.0,-0.99977195,-0.021354731,0.8738836059570312,-0.1771709228515625,8.315062365722655,0.0,0.0,0.0,0.01574707
0.0,0.0,0.0,0.10389371,-0.021239169,0.99436164,0.99458843,0.0022186225,-0.103870034,0.0,-0.99977195,-0.021354731,0.8762778076171874,-0.1580173095703125,8.317456567382813,0.0,0.0,0.0,0.01574707
0.0,0.0,0.0,0.10389371,-0.021239169,0.99436164,0.99458843,0.0022186225,-0.103870034,0.0,-0.99977195,-0.021354731,0.8212111694335937,-0.2059013427734375,8.291120349121094,0.0,0.0,0.0,0.01574707
0.0,0.0,0.0,0.10389371,-0.021239169,0.99436164,0.99458843,0.0022186225,-0.103870034,0.0,-0.99977195,-0.021354731,0.8906430175781249,-0.1484405029296875,8.195352282714843,0.0,0.0,0.0,0.01574707
0.0,0.0,0.0,0.10389371,-0.021239169,0.99436164,0.99458843,0.0022186225,-0.103870034,0.0,-0.99977195,-0.021354731,0.8403647827148437,-0.16759411621093748,8.279149340820313,0.0,0.0,0.0,0.01574707
0.0,0.0,0.0,0.10389371,-0.021239169,0.99436164,0.99458843,0.0022186225,-0.103870034,0.0,-0.99977195,-0.021354731,0.9050082275390624,-0.2154781494140625,8.257601525878906,0.0,0.0,0.0,0.01574707
0.0,0.0,0.0,0.10389371,-0.021239169,0.99436164,0.99458843,0.0022186225,-0.103870034,0.0,-0.99977195,-0.021354731,0.8810662109374999,-0.15083470458984374,8.24802471923828,0.0,0.0,0.0,0.01574707
0.0,0.0,0.0,0.10389371,-0.021239169,0.99436164,0.99458843,0.0022186225,-0.103870034,0.0,-0.99977195,-0.021354731,0.8643067993164062,-0.19153613281249998,8.29351455078125,0.0,0.0,0.0,0.01586914
0.0,0.0,0.0,0.10389371,-0.021239169,0.99436164,0.99458843,0.0022186225,-0.103870034,0.0,-0.99977195,-0.021354731,0.8188169677734375,-0.17238251953125,8.231265307617187,0.0,0.0,0.0,0.01574707
0.0,0.0,0.0,0.10389371,-0.021239169,0.99436164,0.99458843,0.0022186225,-0.103870034,0.0,-0.99977195,-0.021354731,0.9050082275390624,-0.181959326171875,8.295908752441406,0.0,0.0,0.0,0.015991211
0.0,0.0,0.0,0.10389371,-0.021239169,0.99436164,0.99458843,0.0022186225,-0.103870034,0.0,-0.99977195,-0.021354731,0.7900865478515624,-0.1484405029296875,8.228871105957031,0.0,0.0,0.0,0.01574707
0.0,0.0,0.0,0.10389371,-0.021239169,0.99436164,0.99458843,0.0022186225,-0.103870034,0.0,-0.99977195,-0.021354731,0.8283937744140625,-0.1484405029296875,8.224082702636718,0.0,0.0,0.0,0.01574707
0.0,0.0,0.0,0.10389371,-0.021239169,0.99436164,0.99458843,0.0022186225,-0.103870034,0.0,-0.99977195,-0.021354731,0.9026140258789062,-0.1771709228515625,8.137891442871092,0.0,0.0,0.0,0.01574707
0.0,0.0,0.0,0.10389371,-0.021239169,0.99436164,0.99458843,0.0022186225,-0.103870034,0.0,-0.99977195,-0.021354731,0.8092401611328125,-0.14125789794921875,8.250418920898436,0.0,0.0,0.0,0.01574707
0.0,0.0,0.0,0.10389371,-0.021239169,0.99436164,0.99458843,0.0022186225,-0.103870034,0.0,-0.99977195,-0.021354731,0.8403647827148437,-0.229843359375,8.2743609375,0.0,0.0,0.0,0.015625
0.0,0.0,0.0,0.10389371,-0.021239169,0.99436164,0.99458843,0.0022186225,-0.103870034,0.0,-0.99977195,-0.021354731,0.8164227661132812,-0.17238251953125,8.202534887695313,0.0,0.0,0.0,0.01574707
0.0,0.0,0.0,0.10389371,-0.021239169,0.99436164,0.99458843,0.0022186225,-0.103870034,0.0,-0.99977195,-0.021354731,0.8954314208984374,-0.17238251953125,8.240842114257813,0.0,0.0,0.0,0.01574707
0.0,0.0,0.0,0.10389371,-0.021239169,0.99436164,0.99458843,0.0022186225,-0.103870034,0.0,-0.99977195,-0.021354731,0.8379705810546875,-0.1867477294921875,8.200140686035155,0.0,0.0,0.0,0.015625
0.0,0.0,0.0,0.10389371,-0.021239169,0.99436164,0.99458843,0.0022186225,-0.103870034,0.0,-0.99977195,-0.021354731,0.8978256225585937,-0.17477672119140625,8.281543542480469,0.0,0.0,0.0,0.01574707
0.0,0.0,0.0,0.10389371,-0.021239169,0.99436164,0.99458843,0.0022186225,-0.103870034,0.0,-0.99977195,-0.021354731,0.8858546142578124,-0.19871873779296872,8.295908752441406,0.0,0.0,0.0,0.01574707
0.0,0.0,0.0,0.10389371,-0.021239169,0.99436164,0.99458843,0.0022186225,-0.103870034,0.0,-0.99977195,-0.021354731,0.8547299926757812,-0.16998831787109375,8.226476904296874,0.0,0.0,0.0,0.01586914
0.0,0.0,0.0,0.10389371,-0.021239169,0.99436164,0.99458843,0.0022186225,-0.103870034,0.0,-0.99977195,-0.021354731,0.8738836059570312,-0.20829554443359374,8.310273962402343,0.0,0.0,0.0,0.01574707
0.0,0.0,0.0,0.10389371,-0.021239169,0.99436164,0.99458843,0.0022186225,-0.103870034,0.0,-0.99977195,-0.021354731,0.852335791015625,-0.11252747802734374,8.271966735839843,0.0,0.0,0.0,0.015625
0.0,0.0,0.0,0.10389371,-0.021239169,0.99436164,0.99458843,0.0022186225,-0.103870034,0.0,-0.99977195,-0.021354731,0.8379705810546875,-0.12449848632812499,8.24802471923828,0.0,0.0,0.0,0.015625
0.0,0.0,0.0,0.10389371,-0.021239169,0.99436164,0.99458843,0.0022186225,-0.103870034,0.0,-0.99977195,-0.021354731,0.8547299926757812,-0.19153613281249998,8.334215979003906,0.0,0.0,0.0,0.01574707
0.0,0.0,0.0,0.10389371,-0.021239169,0.99436164,0.99458843,0.0022186225,-0.103870034,0.0,-0.99977195,-0.021354731,0.833182177734375,-0.17477672119140625,8.298302954101562,0.0,0.0,0.0,0.01586914
0.0,0.0,0.0,0.10389371,-0.021239169,0.99436164,0.99458843,0.0022186225,-0.103870034,0.0,-0.99977195,-0.021354731,0.8643067993164062,-0.1149216796875,8.252813122558594,0.0,0.0,0.0,0.01574707
0.0,0.0,0.0,0.10389371,-0.021239169,0.99436164,0.99458843,0.0022186225,-0.103870034,0.0,-0.99977195,-0.021354731,0.8355763793945312,-0.1771709228515625,8.315062365722655,0.0,0.0,0.0,0.01574707
0.0,0.0,0.0,0.10389371,-0.021239169,0.99436164,0.99458843,0.0022186225,-0.103870034,0.0,-0.99977195,-0.021354731,0.814028564453125,-0.26336218261718747,8.228871105957031,0.0,0.0,0.0,0.01574707
0.0,0.0,0.0,0.10389371,-0.021239169,0.99436164,0.99458843,0.0022186225,-0.103870034,0.0,-0.99977195,-0.021354731,0.8810662109374999,-0.14604630126953125,8.271966735839843,0.0,0.0,0.0,0.01574707
0.0,0.0,0.0,0.10389371,-0.021239169,0.99436164,0.99458843,0.0022186225,-0.103870034,0.0,-0.99977195,-0.021354731,0.9074024291992187,-0.20350714111328125,8.259995727539062,0.0,0.0,0.0,0.01574707
0.0,0.0,0.0,0.10389371,-0.021239169,0.99436164,0.99458843,0.0022186225,-0.103870034,0.0,-0.99977195,-0.021354731,0.8714894042968749,-0.16280571289062498,8.257601525878906,0.0,0.0,0.0,0.01574707
0.0,0.0,0.0,0.10389371,-0.021239169,0.99436164,0.99458843,0.0022186225,-0.103870034,0.0,-0.99977195,-0.021354731,0.8643067993164062,-0.22505495605468748,8.312668164062499,0.0,0.0,0.0,0.01574707
0.0,0.0,0.0,0.10389371,-0.021239169,0.99436164,0.99458843,0.0022186225,-0.103870034,0.0,-0.99977195,-0.021354731,0.8978256225585937,-0.13646949462890623,8.271966735839843,0.0,0.0,0.0,0.015991211
0.0,0.0,0.0,0.10389371,-0.021239169,0.99436164,0.99458843,0.0022186225,-0.103870034,0.0,-0.99977195,-0.021354731,0.8690952026367187,-0.13646949462890623,8.195352282714843,0.0,0.0,0.0,0.01574707
0.0,0.0,0.0,0.10389371,-0.021239169,0.99436164,0.99458843,0.0022186225,-0.103870034,0.0,-0.99977195,-0.021354731,0.8499415893554687,-0.16280571289062498,8.226476904296874,0.0,0.0,0.0,0.01574707
0.0,0.0,0.0,0.10389371,-0.021239169,0.99436164,0.99458843,0.0022186225,-0.103870034,0.0,-0.99977195,-0.021354731,0.8954314208984374,-0.18914193115234373,8.180987072753906,0.0,0.0,0.0,0.015625
0.0,0.0,0.0,0.10389371,-0.021239169,0.99436164,0.99458843,0.0022186225,-0.103870034,0.0,-0.99977195,-0.021354731,0.8307879760742187,-0.16280571289062498,8.269572534179687,0.0,0.0,0.0,0.01574707
0.0,0.0,0.0,0.10389371,-0.021239169,0.99436164,0.99458843,0.0022186225,-0.103870034,0.0,-0.99977195,-0.021354731,0.86191259765625,-0.19871873779296872,8.315062365722655,0.0,0.0,0.0,0.015625
0.0,0.0,0.0,0.10389371,-0.021239169,0.99436164,0.99458843,0.0022186225,-0.103870034,0.0,-0.99977195,-0.021354731,0.8020575561523438,-0.181959326171875,8.271966735839843,0.0,0.0,0.0,0.01574707
0.0,0.0,0.0,0.10389371,-0.021239169,0.99436164,0.99458843,0.0022186225,-0.103870034,0.0,-0.99977195,-0.021354731,0.8355763793945312,-0.16998831787109375,8.250418920898436,0.0,0.0,0.0,0.01574707
0.0,0.0,0.0,0.10389371,-0.021239169,0.99436164,0.99458843,0.0022186225,-0.103870034,0.0,-0.99977195,-0.021354731,0.82360537109375,-0.16998831787109375,8.257601525878906,0.0,0.0,0.0,0.01574707
0.0,0.0,0.0,0.10389371,-0.021239169,0.99436164,0.99458843,0.0022186225,-0.103870034,0.0,-0.99977195,-0.021354731,0.8403647827148437,-0.16998831787109375,8.267178332519531,0.0,0.0,0.0,0.01574707
0.0,0.0,0.0,0.10389371,-0.021239169,0.99436164,0.99458843,0.0022186225,-0.103870034,0.0,-0.99977195,-0.021354731,0.9193734375,-0.14604630126953125,8.315062365722655,0.0,0.0,0.0,0.01574707
0.0,0.0,0.0,0.10389371,-0.021239169,0.99436164,0.99458843,0.0022186225,-0.103870034,0.0,-0.99977195,-0.021354731,0.9121908325195311,-0.16998831787109375,8.259995727539062,0.0,0.0,0.0,0.01574707
0.0,0.0,0.0,0.10389371,-0.021239169,0.99436164,0.99458843,0.0022186225,-0.103870034,0.0,-0.99977195,-0.021354731,0.8643067993164062,-0.16519991455078123,8.202534887695313,0.0,0.0,0.0,0.01574707
0.0,0.0,0.0,0.10389371,-0.021239169,0.99436164,0.99458843,0.0022186225,-0.103870034,0.0,-0.99977195,-0.021354731,0.842758984375,-0.14125789794921875,8.214505895996094,0.0,0.0,0.0,0.01574707
0.0,0.0,0.0,0.10389371,-0.021239169,0.99436164,0.99458843,0.0022186225,-0.103870034,0.0,-0.99977195,-0.021354731,0.9193734375,-0.239420166015625,8.2360537109375,0.0,0.0,0.0,0.01574707
0.0,0.0,0.0,0.10389371,-0.021239169,0.99436164,0.99458843,0.0022186225,-0.103870034,0.0,-0.99977195,-0.021354731,0.8547299926757812,-0.18435352783203124,8.190563879394531,0.0,0.0,0.0,0.01574707
0.0,0.0,0.0,0.10389371,-0.021239169,0.99436164,0.99458843,0.0022186225,-0.103870034,0.0,-0.99977195,-0.021354731,0.8714894042968749,-0.19871873779296872,8.190563879394531,0.0,0.0,0.0,0.015625
0.0,0.0,0.0,0.10389371,-0.021239169,0.99436164,0.99458843,0.0022186225,-0.103870034,0.0,-0.99977195,-0.021354731,0.8954314208984374,-0.21068974609375,8.25520732421875,0.0,0.0,0.0,0.01574707
0.0,0.0,0.0,0.10389371,-0.021239169,0.99436164,0.99458843,0.0022186225,-0.103870034,0.0,-0.99977195,-0.021354731,0.8738836059570312,-0.2154781494140625,8.17859287109375,0.0,0.0,0.0,0.01574707
0.0,0.0,0.0,0.10389371,-0.021239169,0.99436164,0.99458843,0.0022186225,-0.103870034,0.0,-0.99977195,-0.021354731,0.8355763793945312,-0.1867477294921875,8.271966735839843,0.0,0.0,0.0,0.01574707
0.0,0.0,0.0,0.10389371,-0.021239169,0.99436164,0.99458843,0.0022186225,-0.103870034,0.0,-0.99977195,-0.021354731,0.8116343627929687,-0.11252747802734374,8.288726147460936,0.0,0.0,0.0,0.01574707
0.0,0.0,0.0,0.10389371,-0.021239169,0.99436164,0.99458843,0.0022186225,-0.103870034,0.0,-0.99977195,-0.021354731,0.93852705078125,-0.09576806640624999,8.13310303955078,0.0,0.0,0.0,0.01574707
0.0,0.0,0.0,0.10389371,-0.021239169,0.99436164,0.99458843,0.0022186225,-0.103870034,0.0,-0.99977195,-0.021354731,0.9193734375,-0.1867477294921875,8.264784130859374,0.0,0.0,0.0,0.01574707
0.0,0.0,0.0,0.10389371,-0.021239169,0.99436164,0.99458843,0.0022186225,-0.103870034,0.0,-0.99977195,-0.021354731,0.8906430175781249,-0.1867477294921875,8.245630517578125,0.0,0.0,0.0,0.015991211
0.0,0.0,0.0,0.10389371,-0.021239169,0.99436164,0.99458843,0.0022186225,-0.103870034,0.0,-0.99977195,-0.021354731,0.9313444458007812,-0.1771709228515625,8.24802471923828,0.0,0.0,0.0,0.01586914
0.0,0.0,0.0,0.10389371,-0.021239169,0.99436164,0.99458843,0.0022186225,-0.103870034,0.0,-0.99977195,-0.021354731,0.9576806640625,-0.1484405029296875,8.257601525878906,0.0,0.0,0.0,0.01574707
0.0,0.0,0.0,0.10389371,-0.021239169,0.99436164,0.99458843,0.0022186225,-0.103870034,0.0,-0.99977195,-0.021354731,0.8738836059570312,-0.18914193115234373,8.243236315917969,0.0,0.0,0.0,0.01574707
0.0,0.0,0.0,0.10389371,-0.021239169,0.99436164,0.99458843,0.0022186225,-0.103870034,0.0,-0.99977195,-0.021354731,0.8667010009765624,-0.181959326171875,8.161833459472655,0.0,0.0,0.0,0.01574707
0.0,0.0,0.0,0.10389371,-0.021239169,0.99436164,0.99458843,0.0022186225,-0.103870034,0.0,-0.99977195,-0.021354731,0.8355763793945312,-0.17956512451171874,8.20971749267578,0.0,0.0,0.0,0.01574707
0.0,0.0,0.0,0.10389371,-0.021239169,0.99436164,0.99458843,0.0022186225,-0.103870034,0.0,-0.99977195,-0.021354731,0.9002198242187499,-0.2154781494140625,8.188169677734374,0.0,0.0,0.0,0.01574707
0.0,0.0,0.0,0.10389371,-0.021239169,0.99436164,0.99458843,0.0022186225,-0.103870034,0.0,-0.99977195,-0.021354731,0.9145850341796874,-0.16519991455078123,8.212111694335936,0.0,0.0,0.0,0.01574707
0.0,0.0,0.0,0.10389371,-0.021239169,0.99436164,0.99458843,0.0022186225,-0.103870034,0.0,-0.99977195,-0.021354731,0.9050082275390624,-0.16280571289062498,8.288726147460936,0.0,0.0,0.0,0.01574707
0.0,0.0,0.0,0.10389371,-0.021239169,0.99436164,0.99458843,0.0022186225,-0.103870034,0.0,-0.99977195,-0.021354731,0.8643067993164062,-0.181959326171875,8.298302954101562,0.0,0.0,0.0,0.015625
0.0,0.0,0.0,0.10389371,-0.021239169,0.99436164,0.99458843,0.0022186225,-0.103870034,0.0,-0.99977195,-0.021354731,0.8212111694335937,-0.19871873779296872,8.298302954101562,0.0,0.0,0.0,0.01574707
0.0,0.0,0.0,0.10389371,-0.021239169,0.99436164,0.99458843,0.0022186225,-0.103870034,0.0,-0.99977195,-0.021354731,0.8499415893554687,-0.105344873046875,8.24802471923828,0.0,0.0,0.0,0.01574707
0.0,0.0,0.0,0.10389371,-0.021239169,0.99436164,0.99458843,0.0022186225,-0.103870034,0.0,-0.99977195,-0.021354731,0.8044517578125,-0.19632453613281248,8.267178332519531,0.0,0.0,0.0,0.01574707
0.0,0.0,0.0,0.10389371,-0.021239169,0.99436164,0.99458843,0.0022186225,-0.103870034,0.0,-0.99977195,-0.021354731,0.8499415893554687,-0.1771709228515625,8.2360537109375,0.0,0.0,0.0,0.01574707
0.0,0.0,0.0,0.10389371,-0.021239169,0.99436164,0.99458843,0.0022186225,-0.103870034,0.0,-0.99977195,-0.021354731,0.8475473876953125,-0.14125789794921875,8.238447912597655,0.0,0.0,0.0,0.01574707
0.0,0.0,0.0,0.10389371,-0.021239169,0.99436164,0.99458843,0.0022186225,-0.103870034,0.0,-0.99977195,-0.021354731,0.9097966308593749,-0.143652099609375,8.264784130859374,0.0,0.0,0.0,0.01574707
0.0,0.0,0.0,0.10389371,-0.021239169,0.99436164,0.99458843,0.0022186225,-0.103870034,0.0,-0.99977195,-0.021354731,0.8403647827148437,-0.1771709228515625,8.343792785644531,0.0,0.0,0.0,0.016479492
0.0,0.0,0.0,0.10389371,-0.021239169,0.99436164,0.99458843,0.0022186225,-0.103870034,0.0,-0.99977195,-0.021354731,0.8643067993164062,-0.2346317626953125,8.207323291015625,0.0,0.0,0.0,0.017333984
0.0,0.0,0.0,0.10389371,-0.021239169,0.99436164,0.99458843,0.0022186225,-0.103870034,0.0,-0.99977195,-0.021354731,0.8834604125976562,-0.2154781494140625,8.262389929199218,0.0,0.0,0.0,0.017456055
0.0,0.0,0.0,0.10389371,-0.021239169,0.99436164,0.99458843,0.0022186225,-0.103870034,0.0,-0.99977195,-0.021354731,0.9050082275390624,-0.1388636962890625,8.29351455078125,0.0,0.0,0.0,0.017456055
0.0,0.0,0.0,0.10389371,-0.021239169,0.99436164,0.99458843,0.0022186225,-0.103870034,0.0,-0.99977195,-0.021354731,0.8403647827148437,-0.1197100830078125,8.190563879394531,0.0,0.0,0.0,0.017333984
0.0,0.0,0.0,0.10389371,-0.021239169,0.99436164,0.99458843,0.0022186225,-0.103870034,0.0,-0.99977195,-0.021354731,0.8810662109374999,-0.16998831787109375,8.281543542480469,0.0,0.0,0.0,0.017578125
0.0,0.0,0.0,0.10389371,-0.021239169,0.99436164,0.99458843,0.0022186225,-0.103870034,0.0,-0.99977195,-0.021354731,0.9169792358398436,-0.1771709228515625,8.238447912597655,0.0,0.0,0.0,0.017944336
0.0,0.0,0.0,0.10389371,-0.021239169,0.99436164,0.99458843,0.0022186225,-0.103870034,0.0,-0.99977195,-0.021354731,0.8403647827148437,-0.201112939453125,8.228871105957031,0.0,0.0,0.0,0.018310547
0.0,0.0,0.0,0.10389371,-0.021239169,0.99436164,0.99458843,0.0022186225,-0.103870034,0.0,-0.99977195,-0.021354731,0.9121908325195311,-0.17238251953125,8.219294299316406,0.0,0.0,0.0,0.017822266
0.0,0.0,0.0,0.10389371,-0.021239169,0.99436164,0.99458843,0.0022186225,-0.103870034,0.0,-0.99977195,-0.021354731,0.8667010009765624,-0.12689268798828124,8.269572534179687,0.0,0.0,0.0,0.017822266
0.0,0.0,0.0,0.10389371,-0.021239169,0.99436164,0.99458843,0.0022186225,-0.103870034,0.0,-0.99977195,-0.021354731,0.833182177734375,-0.17956512451171874,8.190563879394531,0.0,0.0,0.0,0.017822266
0.0,0.0,0.0,0.10389371,-0.021239169,0.99436164,0.99458843,0.0022186225,-0.103870034,0.0,-0.99977195,-0.021354731,0.93852705078125,-0.16041151123046873,8.238447912597655,0.0,0.0,0.0,0.017822266
0.0,0.0,0.0,0.10389371,-0.021239169,0.99436164,0.99458843,0.0022186225,-0.103870034,0.0,-0.99977195,-0.021354731,0.86191259765625,-0.16998831787109375,8.341398583984375,0.0,0.0,0.0,0.017456055
0.0,0.0,0.0,0.10389371,-0.021239169,0.99436164,0.99458843,0.0022186225,-0.103870034,0.0,-0.99977195,-0.021354731,0.9313444458007812,-0.22744915771484372,8.24802471923828,0.0,0.0,0.0,0.017456055
0.0,0.0,0.0,0.10389371,-0.021239169,0.99436164,0.99458843,0.0022186225,-0.103870034,0.0,-0.99977195,-0.021354731,0.7900865478515624,-0.09576806640624999,8.149862451171874,0.0,0.0,0.0,0.017456055
0.0,0.0,0.0,0.10389371,-0.021239169,0.99436164,0.99458843,0.0022186225,-0.103870034,0.0,-0.99977195,-0.021354731,0.8762778076171874,-0.181959326171875,8.291120349121094,0.0,0.0,0.0,0.017456055
0.0,0.0,0.0,0.10389371,-0.021239169,0.99436164,0.99458843,0.0022186225,-0.103870034,0.0,-0.99977195,-0.021354731,0.9265560424804687,-0.20829554443359374,8.243236315917969,0.0,0.0,0.0,0.017333984
0.0,0.0,0.0,0.10389371,-0.021239169,0.99436164,0.99458843,0.0022186225,-0.103870034,0.0,-0.99977195,-0.021354731,0.8307879760742187,-0.15083470458984374,8.295908752441406,0.0,0.0,0.0,0.017700195
0.0,0.0,0.0,0.10389371,-0.021239169,0.99436164,0.99458843,0.0022186225,-0.103870034,0.0,-0.99977195,-0.021354731,0.86191259765625,-0.16759411621093748,8.188169677734374,0.0,0.0,0.0,0.017822266
0.0,0.0,0.0,0.10389371,-0.021239169,0.99436164,0.99458843,0.0022186225,-0.103870034,0.0,-0.99977195,-0.021354731,0.9265560424804687,-0.2537853759765625,8.2743609375,0.0,0.0,0.0,0.017822266
0.0,0.0,0.0,0.10389371,-0.021239169,0.99436164,0.99458843,0.0022186225,-0.103870034,0.0,-0.99977195,-0.021354731,0.9193734375,-0.15562310791015624,8.169016064453125,0.0,0.0,0.0,0.017944336
0.0,0.0,0.0,0.10389371,-0.021239169,0.99436164,0.99458843,0.0022186225,-0.103870034,0.0,-0.99977195,-0.021354731,0.9121908325195311,-0.18914193115234373,8.245630517578125,0.0,0.0,0.0,0.017822266
0.0,0.0,0.0,0.10389371,-0.021239169,0.99436164,0.99458843,0.0022186225,-0.103870034,0.0,-0.99977195,-0.021354731,0.8690952026367187,-0.19871873779296872,8.252813122558594,0.0,0.0,0.0,0.017944336
0.0,0.0,0.0,0.10389371,-0.021239169,0.99436164,0.99458843,0.0022186225,-0.103870034,0.0,-0.99977195,-0.021354731,0.8834604125976562,-0.21068974609375,8.269572534179687,0.0,0.0,0.0,0.017822266
0.0,0.0,0.0,0.10389371,-0.021239169,0.99436164,0.99458843,0.0022186225,-0.103870034,0.0,-0.99977195,-0.021354731,0.8690952026367187,-0.1292868896484375,8.202534887695313,0.0,0.0,0.0,0.017456055
0.0,0.0,0.0,0.10389371,-0.021239169,0.99436164,0.99458843,0.0022186225,-0.103870034,0.0,-0.99977195,-0.021354731,0.8403647827148437,-0.181959326171875,8.322244970703125,0.0,0.0,0.0,0.017456055
0.0,0.0,0.0,0.10389371,-0.021239169,0.99436164,0.99458843,0.0022186225,-0.103870034,0.0,-0.99977195,-0.021354731,0.8643067993164062,-0.16280571289062498,8.226476904296874,0.0,0.0,0.0,0.017456055
0.0,0.0,0.0,0.10389371,-0.021239169,0.99436164,0.99458843,0.0022186225,-0.103870034,0.0,-0.99977195,-0.021354731,0.9074024291992187,-0.14604630126953125,8.329427575683594,0.0,0.0,0.0,0.017456055
0.0,0.0,0.0,0.10389371,-0.021239169,0.99436164,0.99458843,0.0022186225,-0.103870034,0.0,-0.99977195,-0.021354731,0.9026140258789062,-0.14125789794921875,8.276755139160155,0.0,0.0,0.0,0.017333984
0.0,0.0,0.0,0.10389371,-0.021239169,0.99436164,0.99458843,0.0022186225,-0.103870034,0.0,-0.99977195,-0.021354731,0.8355763793945312,-0.07900865478515624,8.252813122558594,0.0,0.0,0.0,0.017456055
0.0,0.0,0.0,0.10389371,-0.021239169,0.99436164,0.99458843,0.0022186225,-0.103870034,0.0,-0.99977195,-0.021354731,0.9002198242187499,-0.1771709228515625,8.200140686035155,0.0,0.0,0.0,0.017333984
0.0,0.0,0.0,0.10389371,-0.021239169,0.99436164,0.99458843,0.0022186225,-0.103870034,0.0,-0.99977195,-0.021354731,0.8044517578125,-0.20350714111328125,8.17141026611328,0.0,0.0,0.0,0.017822266
0.0,0.0,0.0,0.10389371,-0.021239169,0.99436164,0.99458843,0.0022186225,-0.103870034,0.0,-0.99977195,-0.021354731,0.8690952026367187,-0.16041151123046873,8.200140686035155,0.0,0.0,0.0,0.017456055
0.0,0.0,0.0,0.10389371,-0.021239169,0.99436164,0.99458843,0.0022186225,-0.103870034,0.0,-0.99977195,-0.021354731,0.8451531860351562,-0.14125789794921875,8.269572534179687,0.0,0.0,0.0,0.017333984
0.0,0.0,0.0,0.10389371,-0.021239169,0.99436164,0.99458843,0.0022186225,-0.103870034,0.0,-0.99977195,-0.021354731,0.8930372192382812,-0.11013327636718749,8.271966735839843,0.0,0.0,0.0,0.017456055
0.0,0.0,0.0,0.10389371,-0.021239169,0.99436164,0.99458843,0.0022186225,-0.103870034,0.0,-0.99977195,-0.021354731,0.8810662109374999,-0.20350714111328125,8.243236315917969,0.0,0.0,0.0,0.017700195
0.0,0.0,0.0,0.10389371,-0.021239169,0.99436164,0.99458843,0.0022186225,-0.103870034,0.0,-0.99977195,-0.021354731,0.8882488159179687,-0.20350714111328125,8.262389929199218,0.0,0.0,0.0,0.017578125
0.0,0.0,0.0,0.10389371,-0.021239169,0.99436164,0.99458843,0.0022186225,-0.103870034,0.0,-0.99977195,-0.021354731,0.8978256225585937,-0.0909796630859375,8.288726147460936,0.0,0.0,0.0,0.017456055
0.0,0.0,0.0,0.10389371,-0.021239169,0.99436164,0.99458843,0.0022186225,-0.103870034,0.0,-0.99977195,-0.021354731,0.8283937744140625,-0.16759411621093748,8.20971749267578,0.0,0.0,0.0,0.017456055
0.0,0.0,0.0,0.10389371,-0.021239169,0.99436164,0.99458843,0.0022186225,-0.103870034,0.0,-0.99977195,-0.021354731,0.86191259765625,-0.19393033447265623,8.269572534179687,0.0,0.0,0.0,0.017456055
0.0,0.0,0.0,0.10389371,-0.021239169,0.99436164,0.99458843,0.0022186225,-0.103870034,0.0,-0.99977195,-0.021354731,0.9026140258789062,-0.19632453613281248,8.262389929199218,0.0,0.0,0.0,0.017578125
0.0,0.0,0.0,0.10389371,-0.021239169,0.99436164,0.99458843,0.0022186225,-0.103870034,0.0,-0.99977195,-0.021354731,0.9457096557617187,-0.143652099609375,8.233659509277343,0.0,0.0,0.0,0.017456055
0.0,0.0,0.0,0.10389371,-0.021239169,0.99436164,0.99458843,0.0022186225,-0.103870034,0.0,-0.99977195,-0.021354731,0.8954314208984374,-0.143652099609375,8.233659509277343,0.0,0.0,0.0,0.017456055
0.0,0.0,0.0,0.10389371,-0.021239169,0.99436164,0.99458843,0.0022186225,-0.103870034,0.0,-0.99977195,-0.021354731,0.8978256225585937,-0.12210428466796874,8.281543542480469,0.0,0.0,0.0,0.017456055
0.0,0.0,0.0,0.10389371,-0.021239169,0.99436164,0.99458843,0.0022186225,-0.103870034,0.0,-0.99977195,-0.021354731,0.8571241943359375,-0.1771709228515625,8.224082702636718,0.0,0.0,0.0,0.017456055
0.0,0.0,0.0,0.10389371,-0.021239169,0.99436164,0.99458843,0.0022186225,-0.103870034,0.0,-0.99977195,-0.021354731,0.8762778076171874,-0.15083470458984374,8.190563879394531,0.0,0.0,0.0,0.017456055
0.0,0.0,0.0,0.10389371,-0.021239169,0.99436164,0.99458843,0.0022186225,-0.103870034,0.0,-0.99977195,-0.021354731,0.8044517578125,-0.15562310791015624,8.250418920898436,0.0,0.0,0.0,0.017456055
0.0,0.0,0.0,0.10389371,-0.021239169,0.99436164,0.99458843,0.0022186225,-0.103870034,0.0,-0.99977195,-0.021354731,0.8499415893554687,-0.1388636962890625,8.367734802246094,0.0,0.0,0.0,0.017456055
0.0,0.0,0.0,0.10389371,-0.021239169,0.99436164,0.99458843,0.0022186225,-0.103870034,0.0,-0.99977195,-0.021354731,0.9504980590820312,-0.17238251953125,8.276755139160155,0.0,0.0,0.0,0.017456055
0.0,0.0,0.0,0.10389371,-0.021239169,0.99436164,0.99458843,0.0022186225,-0.103870034,0.0,-0.99977195,-0.021354731,0.9002198242187499,-0.181959326171875,8.269572534179687,0.0,0.0,0.0,0.017456055
0.0,0.0,0.0,0.10389371,-0.021239169,0.99436164,0.99458843,0.0022186225,-0.103870034,0.0,-0.99977195,-0.021354731,0.8499415893554687,-0.22026655273437498,8.283937744140625,0.0,0.0,0.0,0.017456055
0.0,0.0,0.0,0.10389371,-0.021239169,0.99436164,0.99458843,0.0022186225,-0.103870034,0.0,-0.99977195,-0.021354731,0.8547299926757812,-0.05985504150390625,8.228871105957031,0.0,0.0,0.0,0.017578125
0.0,0.0,0.0,0.10389371,-0.021239169,0.99436164,0.99458843,0.0022186225,-0.103870034,0.0,-0.99977195,-0.021354731,0.8810662109374999,-0.17238251953125,8.317456567382813,0.0,0.0,0.0,0.017456055
0.0,0.0,0.0,0.10389371,-0.021239169,0.99436164,0.99458843,0.0022186225,-0.103870034,0.0,-0.99977195,-0.021354731,0.8690952026367187,-0.26336218261718747,8.322244970703125,0.0,0.0,0.0,0.017578125
0.0,0.0,0.0,0.10389371,-0.021239169,0.99436164,0.99458843,0.0022186225,-0.103870034,0.0,-0.99977195,-0.021354731,0.8786720092773437,-0.201112939453125,8.219294299316406,0.0,0.0,0.0,0.017944336
0.0,0.0,0.0,0.10389371,-0.021239169,0.99436164,0.99458843,0.0022186225,-0.103870034,0.0,-0.99977195,-0.021354731,0.814028564453125,-0.18914193115234373,8.267178332519531,0.0,0.0,0.0,0.017578125
0.0,0.0,0.0,0.10389371,-0.021239169,0.99436164,0.99458843,0.0022186225,-0.103870034,0.0,-0.99977195,-0.021354731,0.8451531860351562,-0.1484405029296875,8.185775476074218,0.0,0.0,0.0,0.017456055
0.0,0.0,0.0,0.10389371,-0.021239169,0.99436164,0.99458843,0.0022186225,-0.103870034,0.0,-0.99977195,-0.021354731,0.8283937744140625,-0.13407529296874998,8.271966735839843,0.0,0.0,0.0,0.017456055
0.0,0.0,0.0,0.10389371,-0.021239169,0.99436164,0.99458843,0.0022186225,-0.103870034,0.0,-0.99977195,-0.021354731,0.8643067993164062,-0.16759411621093748,8.29351455078125,0.0,0.0,0.0,0.017456055
0.0,0.0,0.0,0.10389371,-0.021239169,0.99436164,0.99458843,0.0022186225,-0.103870034,0.0,-0.99977195,-0.021354731,0.8595183959960937,-0.1580173095703125,8.238447912597655,0.0,0.0,0.0,0.017456055
0.0,0.0,0.0,0.10389371,-0.021239169,0.99436164,0.99458843,0.0022186225,-0.103870034,0.0,-0.99977195,-0.021354731,0.8786720092773437,-0.16759411621093748,8.271966735839843,0.0,0.0,0.0,0.017578125
0.0,0.0,0.0,0.10389371,-0.021239169,0.99436164,0.99458843,0.0022186225,-0.103870034,0.0,-0.99977195,-0.021354731,0.8690952026367187,-0.201112939453125,8.281543542480469,0.0,0.0,0.0,0.017456055
0.0,0.0,0.0,0.10389371,-0.021239169,0.99436164,0.99458843,0.0022186225,-0.103870034,0.0,-0.99977195,-0.021354731,0.8834604125976562,-0.22266075439453123,8.212111694335936,0.0,0.0,0.0,0.017456055
0.0,0.0,0.0,0.10389371,-0.021239169,0.99436164,0.99458843,0.0022186225,-0.103870034,0.0,-0.99977195,-0.021354731,0.8475473876953125,-0.12689268798828124,8.252813122558594,0.0,0.0,0.0,0.017456055
0.0,0.0,0.0,0.10389371,-0.021239169,0.99436164,0.99458843,0.0022186225,-0.103870034,0.0,-0.99977195,-0.021354731,0.8810662109374999,-0.17477672119140625,8.252813122558594,0.0,0.0,0.0,0.017578125
0.0,0.0,0.0,0.10389371,-0.021239169,0.99436164,0.99458843,0.0022186225,-0.103870034,0.0,-0.99977195,-0.021354731,0.8810662109374999,-0.11252747802734374,8.310273962402343,0.0,0.0,0.0,0.017456055
0.0,0.0,0.0,0.10389371,-0.021239169,0.99436164,0.99458843,0.0022186225,-0.103870034,0.0,-0.99977195,-0.021354731,0.8954314208984374,-0.2059013427734375,8.262389929199218,0.0,0.0,0.0,0.017456055
0.0,0.0,0.0,0.10389371,-0.021239169,0.99436164,0.99458843,0.0022186225,-0.103870034,0.0,-0.99977195,-0.021354731,0.8116343627929687,-0.143652099609375,8.271966735839843,0.0,0.0,0.0,0.017456055
0.0,0.0,0.0,0.10389371,-0.021239169,0.99436164,0.99458843,0.0022186225,-0.103870034,0.0,-0.99977195,-0.021354731,0.8738836059570312,-0.1197100830078125,8.279149340820313,0.0,0.0,0.0,0.017333984
0.0,0.0,0.0,0.10389371,-0.021239169,0.99436164,0.99458843,0.0022186225,-0.103870034,0.0,-0.99977195,-0.021354731,0.8858546142578124,-0.19153613281249998,8.29351455078125,0.0,0.0,0.0,0.017456055
0.0,0.0,0.0,0.10389371,-0.021239169,0.99436164,0.99458843,0.0022186225,-0.103870034,0.0,-0.99977195,-0.021354731,0.9361328491210937,-0.22505495605468748,8.271966735839843,0.0,0.0,0.0,0.017333984
0.0,0.0,0.0,0.10389371,-0.021239169,0.99436164,0.99458843,0.0022186225,-0.103870034,0.0,-0.99977195,-0.021354731,0.8164227661132812,-0.2154781494140625,8.240842114257813,0.0,0.0,0.0,0.017333984
0.0,0.0,0.0,0.10389371,-0.021239169,0.99436164,0.99458843,0.0022186225,-0.103870034,0.0,-0.99977195,-0.021354731,0.852335791015625,-0.1580173095703125,8.2743609375,0.0,0.0,0.0,0.017456055
0.0,0.0,0.0,0.10389371,-0.021239169,0.99436164,0.99458843,0.0022186225,-0.103870034,0.0,-0.99977195,-0.021354731,0.8810662109374999,-0.181959326171875,8.252813122558594,0.0,0.0,0.0,0.017333984
0.0,0.0,0.0,0.10389371,-0.021239169,0.99436164,0.99458843,0.0022186225,-0.103870034,0.0,-0.99977195,-0.021354731,0.8954314208984374,-0.1771709228515625,8.288726147460936,0.0,0.0,0.0,0.017578125
0.0,0.0,0.0,0.10389371,-0.021239169,0.99436164,0.99458843,0.0022186225,-0.103870034,0.0,-0.99977195,-0.021354731,0.8355763793945312,-0.1388636962890625,8.259995727539062,0.0,0.0,0.0,0.017456055
0.0,0.0,0.0,0.10389371,-0.021239169,0.99436164,0.99458843,0.0022186225,-0.103870034,0.0,-0.99977195,-0.021354731,0.82360537109375,-0.2154781494140625,8.329427575683594,0.0,0.0,0.0,0.017456055
0.0,0.0,0.0,0.10389371,-0.021239169,0.99436164,0.99458843,0.0022186225,-0.103870034,0.0,-0.99977195,-0.021354731,0.8547299926757812,-0.181959326171875,8.262389929199218,0.0,0.0,0.0,0.018066406
0.0,0.0,0.0,0.10389371,-0.021239169,0.99436164,0.99458843,0.0022186225,-0.103870034,0.0,-0.99977195,-0.021354731,0.8379705810546875,-0.18914193115234373,8.226476904296874,0.0,0.0,0.0,0.017456055
0.0,0.0,0.0,0.10389371,-0.021239169,0.99436164,0.99458843,0.0022186225,-0.103870034,0.0,-0.99977195,-0.021354731,0.86191259765625,-0.181959326171875,8.190563879394531,0.0,0.0,0.0,0.017578125
0.0,0.0,0.0,0.10389371,-0.021239169,0.99436164,0.99458843,0.0022186225,-0.103870034,0.0,-0.99977195,-0.021354731,0.9409212524414062,-0.2059013427734375,8.257601525878906,0.0,0.0,0.0,0.017456055
0.0,0.0,0.0,0.10389371,-0.021239169,0.99436164,0.99458843,0.0022186225,-0.103870034,0.0,-0.99977195,-0.021354731,0.8499415893554687,-0.19632453613281248,8.166621862792969,0.0,0.0,0.0,0.017456055
0.0,0.0,0.0,0.10389371,-0.021239169,0.99436164,0.99458843,0.0022186225,-0.103870034,0.0,-0.99977195,-0.021354731,0.7876923461914062,-0.1197100830078125,8.219294299316406,0.0,0.0,0.0,0.017456055
0.0,0.0,0.0,0.10389371,-0.021239169,0.99436164,0.99458843,0.0022186225,-0.103870034,0.0,-0.99977195,-0.021354731,0.9097966308593749,-0.07900865478515624,8.245630517578125,0.0,0.0,0.0,0.017456055
0.0,0.0,0.0,0.10389371,-0.021239169,0.99436164,0.99458843,0.0022186225,-0.103870034,0.0,-0.99977195,-0.021354731,0.8595183959960937,-0.21308394775390624,8.226476904296874,0.0,0.0,0.0,0.017456055
0.0,0.0,0.0,0.10389371,-0.021239169,0.99436164,0.99458843,0.0022186225,-0.103870034,0.0,-0.99977195,-0.021354731,0.852335791015625,-0.12449848632812499,8.336610180664062,0.0,0.0,0.0,0.017700195
0.0,0.0,0.0,0.10389371,-0.021239169,0.99436164,0.99458843,0.0022186225,-0.103870034,0.0,-0.99977195,-0.021354731,0.9074024291992187,-0.1292868896484375,8.281543542480469,0.0,0.0,0.0,0.017456055
0.0,0.0,0.0,0.10389371,-0.021239169,0.99436164,0.99458843,0.0022186225,-0.103870034,0.0,-0.99977195,-0.021354731,0.9026140258789062,-0.25139117431640623,8.322244970703125,0.0,0.0,0.0,0.017822266
0.0,0.0,0.0,0.10389371,-0.021239169,0.99436164,0.99458843,0.0022186225,-0.103870034,0.0,-0.99977195,-0.021354731,0.8547299926757812,-0.1580173095703125,8.2743609375,0.0,0.0,0.0,0.018066406
0.0,0.0,0.0,0.10389371,-0.021239169,0.99436164,0.99458843,0.0022186225,-0.103870034,0.0,-0.99977195,-0.021354731,0.9002198242187499,-0.105344873046875,8.13310303955078,0.0,0.0,0.0,0.018310547
0.0,0.0,0.0,0.10389371,-0.021239169,0.99436164,0.99458843,0.0022186225,-0.103870034,0.0,-0.99977195,-0.021354731,0.9026140258789062,-0.11252747802734374,8.221688500976562,0.0,0.0,0.0,0.017944336
0.0,0.0,0.1604184,0.103830874,-0.02154425,0.99436164,0.99459064,-0.0007028403,-0.103870034,-0.002936679,-0.99976766,-0.021354731,1.7166425903320313,0.8643067993164062,8.21690009765625,0.01560139,0.019045264,0.0,0.018310547
0.0,0.0,0.2371596,0.10373888,-0.021982921,0.99436164,0.9945788,-0.0049066916,-0.103870034,-0.007162392,-0.9997463,-0.021354731,1.5179238525390624,-0.49320554199218747,8.164227661132813,0.027183142,0.013361068,0.0,0.017822266
0.0,0.0,0.109124385,0.10369504,-0.022188779,0.99436164,0.9945671,-0.006880728,-0.103870034,-0.009146681,-0.9997301,-0.021354731,0.9193734375,-0.47884033203125,8.281543542480469,0.027183142,0.007882118,0.0,0.018188477
0.0,0.0,0.031450566,0.10368233,-0.022248093,0.99436164,0.994563,-0.0074496567,-0.103870034,-0.009718564,-0.99972475,-0.021354733,0.6607996582031249,-0.2346317626953125,8.157045056152343,0.023359897,0.007882118,0.0,0.018188477
0.0,0.0,0.0,0.10368233,-0.022248093,0.99436164,0.994563,-0.0074496567,-0.103870034,-0.009718564,-0.99972475,-0.021354733,1.0271125122070313,-0.29927520751953124,8.226476904296874,0.023359897,0.007882118,0.0,0.017822266
0.0,0.0,0.0,0.10368233,-0.022248093,0.99436164,0.994563,-0.0074496567,-0.103870034,-0.009718564,-0.99972475,-0.021354733,0.9983820922851562,-0.2753331909179687,8.310273962402343,0.023359897,0.007882118,0.0,0.017456055
-0.03506113,0.0,0.0,0.10368233,-0.022869434,0.9943476,0.994563,-0.00738475,-0.10387467,-0.009718564,-0.9997112,-0.021979425,0.9864110839843749,-0.43574470214843747,8.152256652832031,0.023359897,0.0034346466,0.0,0.017822266
0.0,0.0,-0.025572404,0.10369267,-0.022822501,0.9943476,0.99456626,-0.0069345743,-0.103874676,-0.009266057,-0.9997155,-0.021979425,1.0749965454101562,-0.12689268798828124,8.295908752441406,0.02695632,0.0034346466,0.0,0.017700195
0.0,0.0,0.0,0.10369267,-0.022822501,0.9943476,0.99456626,-0.0069345743,-0.103874676,-0.009266057,-0.9997155,-0.021979425,0.9864110839843749,-0.105344873046875,8.329427575683594,0.02695632,0.0034346466,0.0,0.017578125
0.0,0.0,0.0,0.10369267,-0.022822501,0.9943476,0.99456626,-0.0069345743,-0.103874676,-0.009266057,-0.9997155,-0.021979425,1.1061211669921875,0.023942016601562498,8.319850769042969,0.031049458,0.007131866,0.0,0.017578125
0.0,0.0,0.0,0.10369267,-0.022822501,0.9943476,0.99456626,-0.0069345743,-0.103874676,-0.009266057,-0.9997155,-0.021979425,0.8930372192382812,-0.009576806640625,8.252813122558594,0.031049458,0.007131866,0.0,0.018066406
0.0,0.0,0.03278288,0.1036795,-0.022882251,0.9943476,0.9945621,-0.0075077033,-0.103874676,-0.009842153,-0.99971,-0.021979425,0.9193734375,-0.01915361328125,8.339004382324218,0.031049458,0.007131866,0.0,0.017578125
0.0,0.0,0.049570013,0.10365966,-0.022971956,0.9943476,0.99455523,-0.008368292,-0.103874676,-0.010707195,-0.99970114,-0.021979425,1.0510545288085937,-0.14125789794921875,8.386888415527343,0.031049458,0.007131866,0.0,0.017456055
0.0,0.0,0.06196052,0.10363475,-0.02308406,0.9943476,0.9945456,-0.009443984,-0.103874676,-0.011788452,-0.999689,-0.021979425,0.9624690673828125,-0.011971008300781249,8.243236315917969,0.031049458,0.007131866,0.0,0.017456055
0.0,0.0,0.052900795,0.10361339,-0.023179749,0.9943476,0.99453646,-0.010362383,-0.103874676,-0.012711599,-0.99967766,-0.021979425,0.9145850341796874,-0.12449848632812499,8.504204296874999,0.031049458,0.007131866,0.0044814297,0.017456055
0.0,0.0,0.031184103,0.103600755,-0.023236148,0.9943476,0.9945307,-0.010903759,-0.103874676,-0.013255773,-0.99967057,-0.021979425,0.9624690673828125,-0.29448680419921874,8.33182177734375,0.031049458,0.007131866,0.0044814297,0.017456055
0.0,0.0,0.0,0.103600755,-0.023236148,0.9943476,0.9945307,-0.010903759,-0.103874676,-0.013255773,-0.99967057,-0.021979425,0.8930372192382812,-0.24181436767578124,8.09479581298828,0.031049458,0.007131866,0.0044814297,0.017456055
0.0,0.0,0.0,0.103600755,-0.023236148,0.9943476,0.9945307,-0.010903759,-0.103874676,-0.013255773,-0.99967057,-0.021979425,1.0462661254882812,-0.1197100830078125,8.24802471923828,0.031049458,0.007131866,0.0044814297,0.017333984
0.0,0.0,0.0,0.103600755,-0.023236148,0.9943476,0.9945307,-0.010903759,-0.103874676,-0.013255773,-0.99967057,-0.021979425,0.852335791015625,0.0047884033203125,8.319850769042969,0.031049458,0.007131866,0.0044814297,0.017456055
0.0,0.0,0.041842602,0.10358375,-0.023311812,0.9943476,0.99452245,-0.011630168,-0.103874676,-0.013985936,-0.9996606,-0.021979425,1.1420341918945311,-0.06464344482421874,8.212111694335936,0.035696194,0.007131866,0.0044814297,0.017456055
0.0,0.0,0.056764502,0.103560604,-0.02341444,0.9943476,0.9945104,-0.012615619,-0.103874676,-0.014976476,-0.99964625,-0.021979425,0.7422025146484375,-0.07900865478515624,8.10197841796875,0.035696194,0.007131866,0.0044814297,0.017456055
0.0,0.0,0.0546328,0.10353823,-0.023513192,0.9943476,0.99449795,-0.013564051,-0.103874676,-0.015929805,-0.9996315,-0.021979425,0.9169792358398436,-0.16041151123046873,8.228871105957031,0.035696194,0.007131866,0.0044814297,0.017456055
0.0,0.0,0.070887014,0.10350885,-0.02364219,0.9943476,0.99448025,-0.014803246,-0.103874676,-0.017175395,-0.9996109,-0.021979425,0.8786720092773437,-0.08140285644531249,8.374917407226562,0.035696194,0.007131866,0.0044814297,0.017578125
0.0,0.0,0.07288548,0.10347869,-0.023773864,0.9943476,0.99446064,-0.016068503,-0.103874676,-0.01844718,-0.99958825,-0.021979425,0.6871358764648438,-0.23702596435546874,8.403647827148436,0.035696194,0.007131866,0.0044814297,0.017456055
0.0,0.0,0.045439843,0.103459805,-0.023855936,0.9943476,0.9944476,-0.016857306,-0.103874676,-0.019240048,-0.9995733,-0.021979425,0.7062894897460937,-0.26336218261718747,8.13310303955078,0.035696194,0.007131866,0.0044814297,0.017456055
0.0,0.0,0.040377058,0.103443086,-0.02392834,0.9943476,0.99443555,-0.01755331,-0.103874676,-0.01993964,-0.9995596,-0.021979425,0.9337386474609375,-0.20829554443359374,8.334215979003906,0.035696194,0.007131866,0.0044814297,0.017333984
0.0,0.0,0.06382576,0.10341636,-0.024043577,0.9943476,0.9944153,-0.018661244,-0.10387466,-0.021053283,-0.99953675,-0.021979425,0.8930372192382812,-0.05027823486328125,8.384494213867187,0.035696194,0.007131866,0.0044814297,0.017456055
0.0,0.0,0.058230042,0.10339187,-0.024148684,0.9943476,0.99439585,-0.019672027,-0.10387467,-0.022069268,-0.9995148,-0.021979425,0.9265560424804687,-0.3184288208007812,8.080430603027343,0.035696194,0.007131866,0.0044814297,0.017456055
0.0,0.0,0.024789004,0.103381485,-0.024193108,0.9943476,0.9943873,-0.020099308,-0.10387467,-0.02249875,-0.9995052,-0.021979425,0.7278373046875,-0.1197100830078125,8.267178332519531,0.035696194,0.007131866,0.0044814297,0.017333984
0.0,0.0,0.0,0.103381485,-0.024193108,0.9943476,0.9943873,-0.020099308,-0.10387467,-0.02249875,-0.9995052,-0.021979425,0.8978256225585937,-0.14604630126953125,8.315062365722655,0.035696194,0.007131866,0.0044814297,0.017456055
0.0,0.0,0.03384873,0.103367075,-0.024254616,0.9943476,0.99437517,-0.020690963,-0.10387467,-0.023093449,-0.99949175,-0.021979427,0.9648632690429687,-0.1484405029296875,8.463502868652343,0.035696194,0.007131866,0.008256177,0.017578125
0.0,0.0,0.0,0.103367075,-0.024254616,0.9943476,0.99437517,-0.020690963,-0.10387467,-0.023093449,-0.99949175,-0.021979427,0.8643067993164062,-0.229843359375,8.125920434570313,0.035696194,0.007131866,0.008256177,0.017333984
0.0,0.0,-0.02410686,0.103377275,-0.024211116,0.9943476,0.9943838,-0.020272518,-0.10387467,-0.02267285,-0.9995014,-0.021979427,0.7254431030273437,-0.04548983154296875,8.327033374023436,0.035696194,0.007131866,0.008256177,0.017456055
0.0,0.0,-0.020243155,0.10338613,-0.024173308,0.9943476,0.99439114,-0.01990885,-0.10387467,-0.022307308,-0.9995095,-0.021979425,0.9792284790039062,-0.16998831787109375,8.595183959960938,0.035696194,0.007131866,0.014501534,0.018066406
0.0,0.0,0.0,0.10338613,-0.024173308,0.9943476,0.99439114,-0.01990885,-0.10387467,-0.022307308,-0.9995095,-0.021979425,1.0438719238281249,-0.09816226806640624,8.013392956542969,0.035696194,0.007131866,0.01032159,0.017578125
0.0,0.0,0.0,0.10338613,-0.024173308,0.9943476,0.99439114,-0.01990885,-0.10387467,-0.022307308,-0.9995095,-0.021979425,0.8978256225585937,-0.34715924072265625,8.044517578125,0.035696194,0.007131866,0.0067355535,0.017456055
0.0,0.0,0.0,0.10338613,-0.024173308,0.9943476,0.99439114,-0.01990885,-0.10387467,-0.022307308,-0.9995095,-0.021979425,0.8595183959960937,-0.24899697265624998,7.8529814453124995,0.035696194,0.007131866,-0.00017531344,0.017456055
0.0,0.0,0.036779813,0.103370585,-0.02423968,0.9943476,0.99437815,-0.020547275,-0.10387467,-0.022949021,-0.999495,-0.021979427,0.6464344482421874,-0.0909796630859375,8.2360537109375,0.031743113,0.007131866,-0.00017531344,0.017456055
0.0,0.022505425,0.039311208,0.10296328,-0.024310475,0.9943881,0.99440455,-0.021229645,-0.10348401,-0.023626251,-0.99947906,-0.021988576,0.8451531860351562,-0.36631285400390623,8.640673791503906,0.031743113,0.007131866,0.006694506,0.017456055
0.0,0.0,0.0,0.10296328,-0.024310475,0.9943881,0.99440455,-0.021229645,-0.10348401,-0.023626251,-0.99947906,-0.021988576,0.8882488159179687,-0.15562310791015624,8.14028564453125,0.031743113,0.007131866,0.006694506,0.017456055
0.0,0.0,0.0,0.10296328,-0.024310475,0.9943881,0.99440455,-0.021229645,-0.10348401,-0.023626251,-0.99947906,-0.021988576,0.8307879760742187,-0.23223756103515625,8.394071020507813,0.031743113,0.007131866,0.006694506,0.017456055
0.0,0.0,0.034248423,0.10294873,-0.024372026,0.9943881,0.9943917,-0.021824138,-0.10348401,-0.024223778,-0.99946475,-0.021988576,0.9935936889648437,-0.13168109130859373,8.080430603027343,0.031743113,0.007131866,0.006694506,0.017456055
0.0,0.0,0.027853323,0.10293687,-0.024422077,0.9943881,0.99438095,-0.022307618,-0.10348401,-0.024709724,-0.9994528,-0.021988576,1.0534487304687499,-0.2154781494140625,8.17859287109375,0.031743113,0.007131866,0.006694506,0.017456055
0.0,0.0,0.030384718,0.1029239,-0.024476672,0.9943881,0.994369,-0.022835031,-0.10348401,-0.025239827,-0.9994396,-0.021988576,0.9720458740234375,-0.24181436767578124,8.420407238769531,0.031743113,0.007131866,0.006694506,0.017456055
0.0,0.0,0.0,0.1029239,-0.024476672,0.9943881,0.994369,-0.022835031,-0.10348401,-0.025239827,-0.9994396,-0.021988576,0.9816226806640624,-0.3495534423828125,7.8362220336914055,0.031743113,0.007131866,-0.00050681434,0.017456055
0.0,0.0,0.026654242,0.10291226,-0.024525562,0.9943881,0.994358,-0.023307392,-0.10348401,-0.025714597,-0.9994275,-0.021988576,0.928950244140625,-0.143652099609375,8.437166650390624,0.031743113,0.007131866,-0.00050681434,0.017822266
0.0,0.0,0.03411519,0.10289723,-0.024588559,0.9943881,0.9943436,-0.02391611,-0.10348402,-0.026326416,-0.9994116,-0.021988576,1.0941501586914062,-0.09337386474609374,8.513781103515624,0.035767674,0.007131866,0.004269687,0.017944336
0.0,0.0,0.046106,0.10287699,-0.024673102,0.9943881,0.9943236,-0.024733167,-0.10348402,-0.027147638,-0.9993896,-0.021988576,0.9552864624023437,-0.2561795776367187,8.183381274414062,0.035767674,0.007131866,0.004269687,0.017822266
0.0,0.0,0.05636481,0.10285215,-0.024776435,0.9943881,0.9942983,-0.025732001,-0.10348402,-0.028151559,-0.9993618,-0.021988576,0.9983820922851562,0.0,7.9295958984374995,0.035767674,0.007131866,-0.0014146143,0.017822266
0.0,0.0,0.07701565,0.10281781,-0.024918552,0.9943881,0.99426174,-0.027106091,-0.10348402,-0.029532645,-0.99932194,-0.021988576,0.8714894042968749,-0.19153613281249998,8.137891442871092,0.035767674,0.007131866,-0.0014146143,0.017944336
0.0,0.0,0.11032347,0.102768615,-0.025120666,0.9943881,0.99420655,-0.029060971,-0.10348402,-0.031497467,-0.9992619,-0.021988576,0.93852705078125,-0.0383072265625,8.506598498535157,0.035767674,0.007131866,0.003223698,0.017822266
0.0,0.022372194,0.12990844,0.10231368,-0.025358077,0.994429,0.99417776,-0.03136279,-0.10308761,-0.03380217,-0.9991864,-0.022001596,0.852335791015625,-0.0526724365234375,8.394071020507813,0.035767674,0.007131866,0.003223698,0.017822266
0.0,0.0,0.13243984,0.102254786,-0.025594546,0.994429,0.9941026,-0.033661123,-0.10308761,-0.036112078,-0.9991056,-0.022001596,0.9313444458007812,-0.2346317626953125,8.283937744140625,0.035767674,0.007131866,0.003223698,0.017456055
0.0,0.0,0.10232959,0.102208905,-0.02577716,0.994429,0.9940409,-0.035436805,-0.10308761,-0.037896693,-0.9990395,-0.022001596,1.1061211669921875,-0.41898529052734373,8.283937744140625,0.039954122,0.0033818826,0.003223698,0.017456055
0.022095073,0.0,0.07128671,0.10217699,-0.025520781,0.9944389,0.9939959,-0.0367135,-0.10307369,-0.03913986,-0.99899995,-0.021616282,0.7781155395507812,-0.18435352783203124,8.245630517578125,0.039954122,0.0033818826,0.003223698,0.017456055
0.0,0.0,0.070887014,0.10214533,-0.025647197,0.9944389,0.99394983,-0.037943453,-0.1030737,-0.040376,-0.9989508,-0.021616282,0.9648632690429687,-0.076614453125,8.322244970703125,0.039954122,0.0033818826,0.003223698,0.017456055
0.0,0.0,0.06609069,0.10211588,-0.025764199,0.9944389,0.9939056,-0.039082106,-0.10307369,-0.041520387,-0.9989039,-0.021616282,0.9648632690429687,-0.2920926025390625,8.188169677734374,0.039954122,0.0033818826,0.003223698,0.017333984
0.0,0.0,0.04917032,0.10209311,-0.02585429,0.9944389,0.9938708,-0.039959047,-0.103073694,-0.042401727,-0.99886674,-0.02161628,0.5219359619140624,-0.16759411621093748,8.317456567382813,0.033767972,0.0033818826,0.003223698,0.017944336
0.0,0.0,0.053833414,0.10206877,-0.025950218,0.9944389,0.9938328,-0.04089299,-0.103073694,-0.043340366,-0.99882656,-0.021616282,0.5746083984375,-0.0718260498046875,8.851363537597656,0.028705003,0.0033818826,0.01373342,0.017456055
0.0,0.0,0.09526833,0.10202547,-0.026119923,0.9944389,0.99376345,-0.042545684,-0.103073694,-0.04500136,-0.998753,-0.02161628,0.689530078125,0.016759411621093748,8.372523205566406,0.028705003,0.0072910064,0.01373342,0.017456055
0.0,0.0,0.12431274,0.10196855,-0.026341258,0.9944389,0.9936688,-0.04470206,-0.103073694,-0.047168568,-0.9986531,-0.021616282,0.6727706665039062,-0.1771709228515625,8.444349255371094,0.028705003,0.0072910064,0.01373342,0.017456055
0.0,0.0,0.10632653,0.10191948,-0.02653047,0.9944389,0.9935841,-0.046546273,-0.103073694,-0.04902203,-0.9985638,-0.021616282,0.7134720947265625,-0.3280056274414062,7.886500268554687,0.028705003,0.0072910064,0.007322988,0.017456055
0.0,0.0,0.0525011,0.10189495,-0.026624518,0.9944389,0.9935407,-0.047463205,-0.103073694,-0.049943555,-0.99851817,-0.021616282,0.35194764404296874,-0.3016694091796875,8.204929089355469,0.019794038,0.0072910064,0.007322988,0.017578125
0.0,0.0,0.0,0.10189495,-0.026624518,0.9944389,0.9935407,-0.047463205,-0.103073694,-0.049943555,-0.99851817,-0.021616282,0.40462008056640625,-0.17238251953125,8.396465222167969,0.011689365,0.0072910064,0.007322988,0.017944336
0.0,0.0,-0.027437642,0.10190796,-0.026574688,0.9944389,0.9935638,-0.046977356,-0.103073694,-0.049455266,-0.99854237,-0.02161628,0.4285620971679687,-0.16280571289062498,8.329427575683594,0.0041058958,0.0072910064,0.007322988,0.017822266
0.0,0.0,0.0,0.10190796,-0.026574688,0.9944389,0.9935638,-0.046977356,-0.103073694,-0.04945527,-0.9985424,-0.021616282,0.39743747558593745,-0.0383072265625,8.473079675292968,-0.0039935317,0.0072910064,0.011252822,0.017822266
0.0,0.0,0.0,0.10190796,-0.026574688,0.9944389,0.9935638,-0.046977356,-0.103073694,-0.04945527,-0.9985424,-0.021616282,0.34715924072265625,-0.16041151123046873,8.480262280273436,-0.013009223,0.0072910064,0.015319569,0.017944336
0.0,0.0,0.023856387,0.10189665,-0.026618015,0.9944389,0.99354374,-0.047399793,-0.1030737,-0.04987982,-0.9985213,-0.021616282,0.5434837768554687,-0.28490999755859375,7.994239343261718,-0.018417755,0.0072910064,0.010677406,0.017822266
0.0,0.0,0.0,0.10189665,-0.026618015,0.9944389,0.99354374,-0.047399793,-0.1030737,-0.04987982,-0.9985213,-0.021616282,0.21308394775390624,-0.42377369384765623,8.192958081054687,-0.029610319,0.003513622,0.010677406,0.017700195
0.0,0.0,-0.08392768,0.10193581,-0.026467659,0.9944389,0.9936126,-0.045933973,-0.1030737,-0.048406653,-0.9985938,-0.021616282,0.2442085693359375,-0.46208092041015625,8.259995727539062,-0.040128637,-0.00091332843,0.010677406,0.017578125
0.0,0.0,-0.14454791,0.10200227,-0.026210366,0.9944389,0.9937253,-0.043426707,-0.1030737,-0.04588681,-0.9987128,-0.021616282,0.3591302490234375,-0.36631285400390623,8.281543542480469,-0.048525423,-0.00091332843,0.010677406,0.017456055
0.0,0.0,-0.11616965,0.102055214,-0.026003465,0.9944389,0.9938113,-0.041411478,-0.1030737,-0.043861464,-0.9988038,-0.021616282,0.40462008056640625,0.08858546142578125,8.271966735839843,-0.056094278,0.004272921,0.010677406,0.017456055
0.0,0.0,0.0,0.102055214,-0.026003465,0.9944389,0.9938113,-0.041411478,-0.1030737,-0.043861464,-0.9988038,-0.021616282,0.7996633544921875,0.1005564697265625,8.250418920898436,-0.056094278,0.009642819,0.010677406,0.017456055
0.0,0.0,0.0,0.102055214,-0.026003465,0.9944389,0.9938113,-0.041411478,-0.1030737,-0.043861464,-0.9988038,-0.021616282,0.86191259765625,-0.12210428466796874,8.228871105957031,-0.056094278,0.009642819,0.010677406,0.017456055
0.0,0.0,0.0,0.102055214,-0.026003465,0.9944389,0.9938113,-0.041411478,-0.1030737,-0.043861464,-0.9988038,-0.021616282,0.8786720092773437,-0.19153613281249998,8.20971749267578,-0.056094278,0.009642819,0.010677406,0.017822266
0.0,0.0,0.0,0.102055214,-0.026003465,0.9944389,0.9938113,-0.041411478,-0.1030737,-0.043861464,-0.9988038,-0.021616282,0.8451531860351562,-0.08379705810546874,8.269572534179687,-0.056094278,0.009642819,0.010677406,0.017944336
0.0,0.0,0.0,0.102055214,-0.026003465,0.9944389,0.9938113,-0.041411478,-0.1030737,-0.043861464,-0.9988038,-0.021616282,0.9097966308593749,-0.16280571289062498,8.267178332519531,-0.056094278,0.009642819,0.010677406,0.018066406
0.0,0.0,0.0,0.102055214,-0.026003465,0.9944389,0.9938113,-0.041411478,-0.1030737,-0.043861464,-0.9988038,-0.021616282,0.8762778076171874,-0.16998831787109375,8.17141026611328,-0.056094278,0.009642819,0.010677406,0.017944336
0.0,0.0,0.0,0.102055214,-0.026003465,0.9944389,0.9938113,-0.041411478,-0.1030737,-0.043861464,-0.9988038,-0.021616282,0.9361328491210937,-0.17477672119140625,8.231265307617187,-0.056094278,0.009642819,0.010677406,0.017944336
0.0,0.0,0.0,0.102055214,-0.026003465,0.9944389,0.9938113,-0.041411478,-0.1030737,-0.043861464,-0.9988038,-0.021616282,0.7924807495117187,-0.1484405029296875,8.219294299316406,-0.056094278,0.009642819,0.010677406,0.017944336
0.0,0.0,0.0,0.102055214,-0.026003465,0.9944389,0.9938113,-0.041411478,-0.1030737,-0.043861464,-0.9988038,-0.021616282,0.8834604125976562,-0.13646949462890623,8.2743609375,-0.056094278,0.009642819,0.010677406,0.018554688
0.0,0.0,0.0,0.102055214,-0.026003465,0.9944389,0.9938113,-0.041411478,-0.1030737,-0.043861464,-0.9988038,-0.021616282,0.86191259765625,-0.19632453613281248,8.245630517578125,-0.056094278,0.009642819,0.010677406,0.017456055
0.0,0.0,0.0,0.102055214,-0.026003465,0.9944389,0.9938113,-0.041411478,-0.1030737,-0.043861464,-0.9988038,-0.021616282,0.8810662109374999,-0.17477672119140625,8.283937744140625,-0.056094278,0.009642819,0.010677406,0.017456055
0.0,0.0,0.0,0.102055214,-0.026003465,0.9944389,0.9938113,-0.041411478,-0.1030737,-0.043861464,-0.9988038,-0.021616282,0.814028564453125,-0.17956512451171874,8.228871105957031,-0.056094278,0.009642819,0.010677406,0.017456055
0.0,0.0,0.0,0.102055214,-0.026003465,0.9944389,0.9938113,-0.041411478,-0.1030737,-0.043861464,-0.9988038,-0.021616282,0.8882488159179687,-0.16998831787109375,8.226476904296874,-0.056094278,0.009642819,0.010677406,0.017333984
0.0,0.0,0.0,0.102055214,-0.026003465,0.9944389,0.9938113,-0.041411478,-0.1030737,-0.043861464,-0.9988038,-0.021616282,0.8499415893554687,-0.16998831787109375,8.219294299316406,-0.056094278,0.009642819,0.010677406,0.017578125
0.0,0.0,0.0,0.102055214,-0.026003465,0.9944389,0.9938113,-0.041411478,-0.1030737,-0.043861464,-0.9988038,-0.021616282,0.8475473876953125,-0.18914193115234373,8.207323291015625,-0.056094278,0.009642819,0.010677406,0.017456055
0.0,0.0,0.0,0.102055214,-0.026003465,0.9944389,0.9938113,-0.041411478,-0.1030737,-0.043861464,-0.9988038,-0.021616282,0.8667010009765624,-0.1580173095703125,8.20971749267578,-0.056094278,0.009642819,0.010677406,0.017456055
0.0,0.0,0.0,0.102055214,-0.026003465,0.9944389,0.9938113,-0.041411478,-0.1030737,-0.043861464,-0.9988038,-0.021616282,0.8499415893554687,-0.1867477294921875,8.252813122558594,-0.056094278,0.009642819,0.010677406,0.017456055
0.0,0.0,0.0,0.102055214,-0.026003465,0.9944389,0.9938113,-0.041411478,-0.1030737,-0.043861464,-0.9988038,-0.021616282,0.86191259765625,-0.16759411621093748,8.28633194580078,-0.056094278,0.009642819,0.010677406,0.017456055
0.0,0.0,0.0,0.102055214,-0.026003465,0.9944389,0.9938113,-0.041411478,-0.1030737,-0.043861464,-0.9988038,-0.021616282,0.8978256225585937,-0.1388636962890625,8.197746484375,-0.056094278,0.009642819,0.010677406,0.017456055
0.0,0.0,0.0,0.102055214,-0.026003465,0.9944389,0.9938113,-0.041411478,-0.1030737,-0.043861464,-0.9988038,-0.021616282,0.7972691528320313,-0.17956512451171874,8.262389929199218,-0.056094278,0.009642819,0.010677406,0.017578125
0.0,0.0,0.0,0.102055214,-0.026003465,0.9944389,0.9938113,-0.041411478,-0.1030737,-0.043861464,-0.9988038,-0.021616282,0.8858546142578124,-0.13407529296874998,8.2360537109375,-0.056094278,0.009642819,0.010677406,0.017456055
0.0,0.0,0.0,0.102055214,-0.026003465,0.9944389,0.9938113,-0.041411478,-0.1030737,-0.043861464,-0.9988038,-0.021616282,0.8906430175781249,-0.1292868896484375,8.2360537109375,-0.056094278,0.009642819,0.010677406,0.017456055
0.0,0.0,0.0,0.102055214,-0.026003465,0.9944389,0.9938113,-0.041411478,-0.1030737,-0.043861464,-0.9988038,-0.021616282,0.9026140258789062,-0.17956512451171874,8.224082702636718,-0.056094278,0.009642819,0.010677406,0.017456055
0.0,0.0,0.0,0.102055214,-0.026003465,0.9944389,0.9938113,-0.041411478,-0.1030737,-0.043861464,-0.9988038,-0.021616282,0.8714894042968749,-0.19153613281249998,8.219294299316406,-0.056094278,0.009642819,0.010677406,0.017456055
0.0,0.0,0.0,0.102055214,-0.026003465,0.9944389,0.9938113,-0.041411478,-0.1030737,-0.043861464,-0.9988038,-0.021616282,0.928950244140625,-0.181959326171875,8.202534887695313,-0.056094278,0.009642819,0.010677406,0.017456055
0.0,0.0,0.0,0.102055214,-0.026003465,0.9944389,0.9938113,-0.041411478,-0.1030737,-0.043861464,-0.9988038,-0.021616282,0.9002198242187499,-0.09337386474609374,8.303091357421874,-0.056094278,0.009642819,0.010677406,0.017456055
0.0,0.0,0.0,0.102055214,-0.026003465,0.9944389,0.9938113,-0.041411478,-0.1030737,-0.043861464,-0.9988038,-0.021616282,0.8930372192382812,-0.22744915771484372,8.303091357421874,-0.056094278,0.009642819,0.010677406,0.017578125
0.0,0.0,0.0,0.102055214,-0.026003465,0.9944389,0.9938113,-0.041411478,-0.1030737,-0.043861464,-0.9988038,-0.021616282,0.8068459594726562,-0.16998831787109375,8.271966735839843,-0.056094278,0.009642819,0.010677406,0.017578125
0.0,0.0,0.0,0.102055214,-0.026003465,0.9944389,0.9938113,-0.041411478,-0.1030737,-0.043861464,-0.9988038,-0.021616282,0.8547299926757812,-0.16041151123046873,8.252813122558594,-0.056094278,0.009642819,0.010677406,0.017333984
0.0,0.0,0.0,0.102055214,-0.026003465,0.9944389,0.9938113,-0.041411478,-0.1030737,-0.043861464,-0.9988038,-0.021616282,0.814028564453125,-0.19632453613281248,8.173804467773436,-0.056094278,0.009642819,0.010677406,0.017456055
0.0,0.0,0.0,0.102055214,-0.026003465,0.9944389,0.9938113,-0.041411478,-0.1030737,-0.043861464,-0.9988038,-0.021616282,0.8762778076171874,-0.17956512451171874,8.279149340820313,-0.056094278,0.009642819,0.010677406,0.017456055
0.0,0.0,0.0,0.102055214,-0.026003465,0.9944389,0.9938113,-0.041411478,-0.1030737,-0.043861464,-0.9988038,-0.021616282,0.8499415893554687,-0.1197100830078125,8.233659509277343,-0.056094278,0.009642819,0.010677406,0.017944336
0.0,0.0,0.0,0.102055214,-0.026003465,0.9944389,0.9938113,-0.041411478,-0.1030737,-0.043861464,-0.9988038,-0.021616282,0.814028564453125,-0.2059013427734375,8.291120349121094,-0.056094278,0.009642819,0.010677406,0.017578125
0.0,0.0,0.0,0.102055214,-0.026003465,0.9944389,0.9938113,-0.041411478,-0.1030737,-0.043861464,-0.9988038,-0.021616282,0.8690952026367187,-0.15562310791015624,8.264784130859374,-0.056094278,0.009642819,0.010677406,0.017456055
0.0,0.0,0.0,0.102055214,-0.026003465,0.9944389,0.9938113,-0.041411478,-0.1030737,-0.043861464,-0.9988038,-0.021616282,0.8882488159179687,-0.181959326171875,8.204929089355469,-0.056094278,0.009642819,0.010677406,0.017456055
0.0,0.0,0.0,0.102055214,-0.026003465,0.9944389,0.9938113,-0.041411478,-0.1030737,-0.043861464,-0.9988038,-0.021616282,0.9145850341796874,-0.17477672119140625,8.185775476074218,-0.056094278,0.009642819,0.010677406,0.017456055
0.0,0.0,0.0,0.102055214,-0.026003465,0.9944389,0.9938113,-0.041411478,-0.1030737,-0.043861464,-0.9988038,-0.021616282,0.9696516723632812,-0.19153613281249998,8.152256652832031,-0.056094278,0.009642819,0.010677406,0.017456055
0.0,0.0,0.0,0.102055214,-0.026003465,0.9944389,0.9938113,-0.041411478,-0.1030737,-0.043861464,-0.9988038,-0.021616282,0.852335791015625,-0.14604630126953125,8.276755139160155,-0.056094278,0.009642819,0.010677406,0.017456055
0.0,0.0,0.0,0.102055214,-0.026003465,0.9944389,0.9938113,-0.041411478,-0.1030737,-0.043861464,-0.9988038,-0.021616282,0.8547299926757812,-0.13646949462890623,8.207323291015625,-0.056094278,0.009642819,0.010677406,0.017456055
0.0,0.0,0.0,0.102055214,-0.026003465,0.9944389,0.9938113,-0.041411478,-0.1030737,-0.043861464,-0.9988038,-0.021616282,0.9433154541015625,-0.2154781494140625,8.243236315917969,-0.056094278,0.009642819,0.010677406,0.017333984
0.0,0.0,0.0,0.102055214,-0.026003465,0.9944389,0.9938113,-0.041411478,-0.1030737,-0.043861464,-0.9988038,-0.021616282,0.8978256225585937,-0.17956512451171874,8.226476904296874,-0.056094278,0.009642819,0.010677406,0.017333984
0.0,0.0,0.0,0.102055214,-0.026003465,0.9944389,0.9938113,-0.041411478,-0.1030737,-0.043861464,-0.9988038,-0.021616282,0.8307879760742187,-0.16041151123046873,8.24802471923828,-0.056094278,0.009642819,0.010677406,0.017333984
0.0,0.0,0.0,0.102055214,-0.026003465,0.9944389,0.9938113,-0.041411478,-0.1030737,-0.043861464,-0.9988038,-0.021616282,0.9241618408203125,-0.1484405029296875,8.2360537109375,-0.056094278,0.009642819,0.010677406,0.017578125
0.0,0.0,0.0,0.102055214,-0.026003465,0.9944389,0.9938113,-0.041411478,-0.1030737,-0.043861464,-0.9988038,-0.021616282,0.8882488159179687,-0.22505495605468748,8.200140686035155,-0.056094278,0.009642819,0.010677406,0.017456055
0.0,0.0,0.0,0.102055214,-0.026003465,0.9944389,0.9938113,-0.041411478,-0.1030737,-0.043861464,-0.9988038,-0.021616282,0.8403647827148437,-0.18914193115234373,8.161833459472655,-0.056094278,0.009642819,0.010677406,0.017456055
0.0,0.0,0.0,0.102055214,-0.026003465,0.9944389,0.9938113,-0.041411478,-0.1030737,-0.043861464,-0.9988038,-0.021616282,0.9002198242187499,-0.105344873046875,8.200140686035155,-0.056094278,0.009642819,0.010677406,0.017578125
0.0,0.0,0.0,0.102055214,-0.026003465,0.9944389,0.9938113,-0.041411478,-0.1030737,-0.043861464,-0.9988038,-0.021616282,0.8738836059570312,-0.2059013427734375,8.283937744140625,-0.056094278,0.009642819,0.010677406,0.017333984
0.0,0.0,0.0,0.102055214,-0.026003465,0.9944389,0.9938113,-0.041411478,-0.1030737,-0.043861464,-0.9988038,-0.021616282,0.8930372192382812,-0.16998831787109375,8.259995727539062,-0.056094278,0.009642819,0.010677406,0.017333984
0.0,0.0,0.0,0.102055214,-0.026003465,0.9944389,0.9938113,-0.041411478,-0.1030737,-0.043861464,-0.9988038,-0.021616282,0.7733271362304687,-0.1197100830078125,8.190563879394531,-0.056094278,0.009642819,0.010677406,0.017456055
0.0,0.0,0.0,0.102055214,-0.026003465,0.9944389,0.9938113,-0.041411478,-0.1030737,-0.043861464,-0.9988038,-0.021616282,0.82360537109375,-0.1484405029296875,8.21690009765625,-0.056094278,0.009642819,0.010677406,0.017456055
0.0,0.0,0.0,0.102055214,-0.026003465,0.9944389,0.9938113,-0.041411478,-0.1030737,-0.043861464,-0.9988038,-0.021616282,0.948103857421875,-0.1197100830078125,8.271966735839843,-0.056094278,0.009642819,0.010677406,0.017456055
0.0,0.0,0.0,0.102055214,-0.026003465,0.9944389,0.9938113,-0.041411478,-0.1030737,-0.043861464,-0.9988038,-0.021616282,0.8762778076171874,-0.1580173095703125,8.219294299316406,-0.056094278,0.009642819,0.010677406,0.017456055
0.0,0.0,0.0,0.102055214,-0.026003465,0.9944389,0.9938113,-0.041411478,-0.1030737,-0.043861464,-0.9988038,-0.021616282,0.7805097412109374,-0.181959326171875,8.219294299316406,-0.056094278,0.009642819,0.010677406,0.017456055
0.0,0.0,0.0,0.102055214,-0.026003465,0.9944389,0.9938113,-0.041411478,-0.1030737,-0.043861464,-0.9988038,-0.021616282,0.9002198242187499,-0.1149216796875,8.21690009765625,-0.056094278,0.009642819,0.010677406,0.017456055
0.0,0.0,0.0,0.102055214,-0.026003465,0.9944389,0.9938113,-0.041411478,-0.1030737,-0.043861464,-0.9988038,-0.021616282,0.8547299926757812,-0.18914193115234373,8.240842114257813,-0.056094278,0.009642819,0.010677406,0.017333984
0.0,0.0,0.0,0.102055214,-0.026003465,0.9944389,0.9938113,-0.041411478,-0.1030737,-0.043861464,-0.9988038,-0.021616282,0.9097966308593749,-0.16519991455078123,8.243236315917969,-0.056094278,0.009642819,0.010677406,0.017822266
0.0,0.0,0.0,0.102055214,-0.026003465,0.9944389,0.9938113,-0.041411478,-0.1030737,-0.043861464,-0.9988038,-0.021616282,0.9169792358398436,-0.15083470458984374,8.288726147460936,-0.056094278,0.009642819,0.010677406,0.017578125
0.0,0.0,0.0,0.102055214,-0.026003465,0.9944389,0.9938113,-0.041411478,-0.1030737,-0.043861464,-0.9988038,-0.021616282,0.8475473876953125,-0.15562310791015624,8.195352282714843,-0.056094278,0.009642819,0.010677406,0.017456055
0.0,0.0,0.0,0.102055214,-0.026003465,0.9944389,0.9938113,-0.041411478,-0.1030737,-0.043861464,-0.9988038,-0.021616282,0.8379705810546875,-0.17238251953125,8.202534887695313,-0.056094278,0.009642819,0.010677406,0.017578125
0.0,0.0,0.0,0.102055214,-0.026003465,0.9944389,0.9938113,-0.041411478,-0.1030737,-0.043861464,-0.9988038,-0.021616282,0.8714894042968749,-0.13407529296874998,8.192958081054687,-0.056094278,0.009642819,0.010677406,0.017456055
0.0,0.0,0.0,0.102055214,-0.026003465,0.9944389,0.9938113,-0.041411478,-0.1030737,-0.043861464,-0.9988038,-0.021616282,0.948103857421875,-0.1197100830078125,8.262389929199218,-0.056094278,0.009642819,0.010677406,0.017456055
0.0,0.0,0.0,0.102055214,-0.026003465,0.9944389,0.9938113,-0.041411478,-0.1030737,-0.043861464,-0.9988038,-0.021616282,0.8547299926757812,-0.16759411621093748,8.259995727539062,-0.056094278,0.009642819,0.010677406,0.017456055
0.0,0.0,0.0,0.102055214,-0.026003465,0.9944389,0.9938113,-0.041411478,-0.1030737,-0.043861464,-0.9988038,-0.021616282,0.8475473876953125,-0.14604630126953125,8.192958081054687,-0.056094278,0.009642819,0.010677406,0.017456055
0.0,0.0,0.0,0.102055214,-0.026003465,0.9944389,0.9938113,-0.041411478,-0.1030737,-0.043861464,-0.9988038,-0.021616282,0.852335791015625,-0.15083470458984374,8.221688500976562,-0.056094278,0.009642819,0.010677406,0.017456055
0.0,0.0,0.0,0.102055214,-0.026003465,0.9944389,0.9938113,-0.041411478,-0.1030737,-0.043861464,-0.9988038,-0.021616282,1.0007762939453124,-0.16041151123046873,8.298302954101562,-0.056094278,0.009642819,0.010677406,0.017456055
0.0,0.0,0.0,0.102055214,-0.026003465,0.9944389,0.9938113,-0.041411478,-0.1030737,-0.043861464,-0.9988038,-0.021616282,0.8810662109374999,-0.16759411621093748,8.192958081054687,-0.056094278,0.009642819,0.010677406,0.017333984
0.0,0.0,0.0,0.102055214,-0.026003465,0.9944389,0.9938113,-0.041411478,-0.1030737,-0.043861464,-0.9988038,-0.021616282,0.8643067993164062,-0.20350714111328125,8.204929089355469,-0.056094278,0.009642819,0.010677406,0.017456055
0.0,0.0,0.0,0.102055214,-0.026003465,0.9944389,0.9938113,-0.041411478,-0.1030737,-0.043861464,-0.9988038,-0.021616282,0.9193734375,-0.18435352783203124,8.262389929199218,-0.056094278,0.009642819,0.010677406,0.017456055
0.0,0.0,0.0,0.102055214,-0.026003465,0.9944389,0.9938113,-0.041411478,-0.1030737,-0.043861464,-0.9988038,-0.021616282,0.8379705810546875,-0.19871873779296872,8.207323291015625,-0.056094278,0.009642819,0.010677406,0.017456055
0.0,0.0,0.0,0.102055214,-0.026003465,0.9944389,0.9938113,-0.041411478,-0.1030737,-0.043861464,-0.9988038,-0.021616282,0.8068459594726562,-0.20350714111328125,8.257601525878906,-0.056094278,0.009642819,0.010677406,0.017456055
0.0,0.0,0.0,0.102055214,-0.026003465,0.9944389,0.9938113,-0.041411478,-0.1030737,-0.043861464,-0.9988038,-0.021616282,0.8116343627929687,-0.2346317626953125,8.288726147460936,-0.056094278,0.009642819,0.010677406,0.017456055
0.0,0.0,0.0,0.102055214,-0.026003465,0.9944389,0.9938113,-0.041411478,-0.1030737,-0.043861464,-0.9988038,-0.021616282,0.8403647827148437,-0.143652099609375,8.250418920898436,-0.056094278,0.009642819,0.010677406,0.017456055
0.0,0.0,0.0,0.102055214,-0.026003465,0.9944389,0.9938113,-0.041411478,-0.1030737,-0.043861464,-0.9988038,-0.021616282,0.8188169677734375,-0.15562310791015624,8.291120349121094,-0.056094278,0.009642819,0.010677406,0.017456055
0.0,0.0,0.0,0.102055214,-0.026003465,0.9944389,0.9938113,-0.041411478,-0.1030737,-0.043861464,-0.9988038,-0.021616282,0.8307879760742187,-0.181959326171875,8.226476904296874,-0.056094278,0.009642819,0.010677406,0.017456055
0.0,0.0,0.0,0.102055214,-0.026003465,0.9944389,0.9938113,-0.041411478,-0.1030737,-0.043861464,-0.9988038,-0.021616282,0.8020575561523438,-0.1484405029296875,8.183381274414062,-0.056094278,0.009642819,0.010677406,0.017456055
0.0,0.0,0.0,0.102055214,-0.026003465,0.9944389,0.9938113,-0.041411478,-0.1030737,-0.043861464,-0.9988038,-0.021616282,0.8786720092773437,-0.19153613281249998,8.295908752441406,-0.056094278,0.009642819,0.010677406,0.017456055
0.0,0.0,0.0,0.102055214,-0.026003465,0.9944389,0.9938113,-0.041411478,-0.1030737,-0.043861464,-0.9988038,-0.021616282,0.8643067993164062,-0.18914193115234373,8.259995727539062,-0.056094278,0.009642819,0.010677406,0.017456055
0.0,0.0,0.0,0.102055214,-0.026003465,0.9944389,0.9938113,-0.041411478,-0.1030737,-0.043861464,-0.9988038,-0.021616282,0.833182177734375,-0.181959326171875,8.200140686035155,-0.056094278,0.009642819,0.010677406,0.017456055
0.0,0.0,0.0,0.102055214,-0.026003465,0.9944389,0.9938113,-0.041411478,-0.1030737,-0.043861464,-0.9988038,-0.021616282,0.9121908325195311,-0.21308394775390624,8.281543542480469,-0.056094278,0.009642819,0.010677406,0.017944336
0.0,0.0,0.0,0.102055214,-0.026003465,0.9944389,0.9938113,-0.041411478,-0.1030737,-0.043861464,-0.9988038,-0.021616282,0.9217676391601562,-0.1484405029296875,8.221688500976562,-0.056094278,0.009642819,0.010677406,0.017456055
0.0,0.0,0.0,0.102055214,-0.026003465,0.9944389,0.9938113,-0.041411478,-0.1030737,-0.043861464,-0.9988038,-0.021616282,0.8259995727539062,-0.16280571289062498,8.291120349121094,-0.056094278,0.009642819,0.010677406,0.017578125
0.0,0.0,0.0,0.102055214,-0.026003465,0.9944389,0.9938113,-0.041411478,-0.1030737,-0.043861464,-0.9988038,-0.021616282,0.8547299926757812,-0.13646949462890623,8.245630517578125,-0.056094278,0.009642819,0.010677406,0.017333984
0.0,0.0,0.0,0.102055214,-0.026003465,0.9944389,0.9938113,-0.041411478,-0.1030737,-0.043861464,-0.9988038,-0.021616282,0.8475473876953125,-0.16041151123046873,8.262389929199218,-0.056094278,0.009642819,0.010677406,0.017456055
0.0,0.0,0.0,0.102055214,-0.026003465,0.9944389,0.9938113,-0.041411478,-0.1030737,-0.043861464,-0.9988038,-0.021616282,0.8762778076171874,-0.1292868896484375,8.21690009765625,-0.056094278,0.009642819,0.010677406,0.017456055
0.0,0.0,0.0,0.102055214,-0.026003465,0.9944389,0.9938113,-0.041411478,-0.1030737,-0.043861464,-0.9988038,-0.021616282,0.8499415893554687,-0.13646949462890623,8.276755139160155,-0.056094278,0.009642819,0.010677406,0.017456055
0.0,0.0,0.0,0.102055214,-0.026003465,0.9944389,0.9938113,-0.041411478,-0.1030737,-0.043861464,-0.9988038,-0.021616282,0.9624690673828125,-0.16998831787109375,8.154650854492187,-0.056094278,0.009642819,0.010677406,0.017578125
0.0,0.0,0.0,0.102055214,-0.026003465,0.9944389,0.9938113,-0.041411478,-0.1030737,-0.043861464,-0.9988038,-0.021616282,0.8403647827148437,-0.12449848632812499,8.279149340820313,-0.056094278,0.009642819,0.010677406,0.017700195
0.0,0.0,0.0,0.102055214,-0.026003465,0.9944389,0.9938113,-0.041411478,-0.1030737,-0.043861464,-0.9988038,-0.021616282,0.8643067993164062,-0.18435352783203124,8.240842114257813,-0.056094278,0.009642819,0.010677406,0.017944336
0.0,0.0,0.0,0.102055214,-0.026003465,0.9944389,0.9938113,-0.041411478,-0.1030737,-0.043861464,-0.9988038,-0.021616282,0.8571241943359375,-0.1580173095703125,8.32463917236328,-0.056094278,0.009642819,0.010677406,0.017822266
0.0,0.0,0.0,0.102055214,-0.026003465,0.9944389,0.9938113,-0.041411478,-0.1030737,-0.043861464,-0.9988038,-0.021616282,0.9002198242187499,-0.1388636962890625,8.259995727539062,-0.056094278,0.009642819,0.010677406,0.017944336
0.0,0.0,0.0,0.102055214,-0.026003465,0.9944389,0.9938113,-0.041411478,-0.1030737,-0.043861464,-0.9988038,-0.021616282,0.8595183959960937,-0.18914193115234373,8.204929089355469,-0.056094278,0.009642819,0.010677406,0.017944336
0.0,0.0,0.0,0.102055214,-0.026003465,0.9944389,0.9938113,-0.041411478,-0.1030737,-0.043861464,-0.9988038,-0.021616282,0.82360537109375,-0.143652099609375,8.300697155761718,-0.056094278,0.009642819,0.010677406,0.017822266
0.0,0.0,0.0,0.102055214,-0.026003465,0.9944389,0.9938113,-0.041411478,-0.1030737,-0.043861464,-0.9988038,-0.021616282,0.8954314208984374,-0.1580173095703125,8.224082702636718,-0.056094278,0.009642819,0.010677406,0.017944336
0.0,0.0,0.0,0.102055214,-0.026003465,0.9944389,0.9938113,-0.041411478,-0.1030737,-0.043861464,-0.9988038,-0.021616282,0.8834604125976562,-0.17956512451171874,8.269572534179687,-0.056094278,0.009642819,0.010677406,0.017456055
0.0,0.0,0.0,0.102055214,-0.026003465,0.9944389,0.9938113,-0.041411478,-0.1030737,-0.043861464,-0.9988038,-0.021616282,0.8188169677734375,-0.12449848632812499,8.245630517578125,-0.056094278,0.009642819,0.010677406,0.017456055
0.0,0.0,0.0,0.102055214,-0.026003465,0.9944389,0.9938113,-0.041411478,-0.1030737,-0.043861464,-0.9988038,-0.021616282,0.8092401611328125,-0.19871873779296872,8.161833459472655,-0.056094278,0.009642819,0.010677406,0.017456055
0.0,0.0,0.0,0.102055214,-0.026003465,0.9944389,0.9938113,-0.041411478,-0.1030737,-0.043861464,-0.9988038,-0.021616282,0.8643067993164062,-0.12689268798828124,8.279149340820313,-0.056094278,0.009642819,0.010677406,0.017456055
0.0,0.0,0.0,0.102055214,-0.026003465,0.9944389,0.9938113,-0.041411478,-0.1030737,-0.043861464,-0.9988038,-0.021616282,0.9121908325195311,-0.13646949462890623,8.190563879394531,-0.056094278,0.009642819,0.010677406,0.017578125
0.0,0.0,0.0,0.102055214,-0.026003465,0.9944389,0.9938113,-0.041411478,-0.1030737,-0.043861464,-0.9988038,-0.021616282,0.8595183959960937,-0.12689268798828124,8.2360537109375,-0.056094278,0.009642819,0.010677406,0.017456055
0.0,0.0,0.0,0.102055214,-0.026003465,0.9944389,0.9938113,-0.041411478,-0.1030737,-0.043861464,-0.9988038,-0.021616282,0.8738836059570312,-0.19393033447265623,8.204929089355469,-0.056094278,0.009642819,0.010677406,0.017456055
0.0,0.0,0.0,0.102055214,-0.026003465,0.9944389,0.9938113,-0.041411478,-0.1030737,-0.043861464,-0.9988038,-0.021616282,0.9002198242187499,-0.19393033447265623,8.245630517578125,-0.056094278,0.009642819,0.010677406,0.017456055
0.0,0.0,0.0,0.102055214,-0.026003465,0.9944389,0.9938113,-0.041411478,-0.1030737,-0.043861464,-0.9988038,-0.021616282,0.9097966308593749,-0.1580173095703125,8.240842114257813,-0.056094278,0.009642819,0.010677406,0.017944336
0.0,0.0,0.0,0.102055214,-0.026003465,0.9944389,0.9938113,-0.041411478,-0.1030737,-0.043861464,-0.9988038,-0.021616282,0.8499415893554687,-0.15083470458984374,8.25520732421875,-0.056094278,0.009642819,0.010677406,0.017578125
0.0,0.0,0.0,0.102055214,-0.026003465,0.9944389,0.9938113,-0.041411478,-0.1030737,-0.043861464,-0.9988038,-0.021616282,0.7900865478515624,-0.22266075439453123,8.310273962402343,-0.056094278,0.009642819,0.010677406,0.017333984
0.0,0.0,0.0,0.102055214,-0.026003465,0.9944389,0.9938113,-0.041411478,-0.1030737,-0.043861464,-0.9988038,-0.021616282,0.852335791015625,-0.15083470458984374,8.238447912597655,-0.056094278,0.009642819,0.010677406,0.017578125
0.0,0.0,0.0,0.102055214,-0.026003465,0.9944389,0.9938113,-0.041411478,-0.1030737,-0.043861464,-0.9988038,-0.021616282,0.8954314208984374,-0.13407529296874998,8.279149340820313,-0.056094278,0.009642819,0.010677406,0.017456055
0.0,0.0,0.0,0.102055214,-0.026003465,0.9944389,0.9938113,-0.041411478,-0.1030737,-0.043861464,-0.9988038,-0.021616282,0.8882488159179687,-0.143652099609375,8.224082702636718,-0.056094278,0.009642819,0.010677406,0.017333984
0.0,0.0,0.0,0.102055214,-0.026003465,0.9944389,0.9938113,-0.041411478,-0.1030737,-0.043861464,-0.9988038,-0.021616282,0.8164227661132812,-0.11252747802734374,8.298302954101562,-0.056094278,0.009642819,0.010677406,0.017456055
0.0,0.0,0.0,0.102055214,-0.026003465,0.9944389,0.9938113,-0.041411478,-0.1030737,-0.043861464,-0.9988038,-0.021616282,0.7876923461914062,-0.14125789794921875,8.262389929199218,-0.056094278,0.009642819,0.010677406,0.017333984
0.0,0.0,0.0,0.102055214,-0.026003465,0.9944389,0.9938113,-0.041411478,-0.1030737,-0.043861464,-0.9988038,-0.021616282,0.8762778076171874,-0.15562310791015624,8.226476904296874,-0.056094278,0.009642819,0.010677406,0.017333984
0.0,0.0,0.0,0.102055214,-0.026003465,0.9944389,0.9938113,-0.041411478,-0.1030737,-0.043861464,-0.9988038,-0.021616282,0.9050082275390624,-0.1292868896484375,8.197746484375,-0.056094278,0.009642819,0.010677406,0.017456055
0.0,0.0,0.0,0.102055214,-0.026003465,0.9944389,0.9938113,-0.041411478,-0.1030737,-0.043861464,-0.9988038,-0.021616282,0.928950244140625,-0.201112939453125,8.212111694335936,-0.056094278,0.009642819,0.010677406,0.017333984
0.0,0.0,0.0,0.102055214,-0.026003465,0.9944389,0.9938113,-0.041411478,-0.1030737,-0.043861464,-0.9988038,-0.021616282,0.8307879760742187,-0.1771709228515625,8.295908752441406,-0.056094278,0.009642819,0.010677406,0.017333984
0.0,0.0,0.0,0.102055214,-0.026003465,0.9944389,0.9938113,-0.041411478,-0.1030737,-0.043861464,-0.9988038,-0.021616282,0.9002198242187499,-0.16998831787109375,8.20971749267578,-0.056094278,0.009642819,0.010677406,0.017456055
0.0,0.0,0.0,0.102055214,-0.026003465,0.9944389,0.9938113,-0.041411478,-0.1030737,-0.043861464,-0.9988038,-0.021616282,0.9002198242187499,-0.1388636962890625,8.24802471923828,-0.056094278,0.009642819,0.010677406,0.017333984
0.0,0.0,0.0,0.102055214,-0.026003465,0.9944389,0.9938113,-0.041411478,-0.1030737,-0.043861464,-0.9988038,-0.021616282,0.8762778076171874,-0.17238251953125,8.269572534179687,-0.056094278,0.009642819,0.010677406,0.017456055
0.0,0.0,0.0,0.102055214,-0.026003465,0.9944389,0.9938113,-0.041411478,-0.1030737,-0.043861464,-0.9988038,-0.021616282,0.8643067993164062,-0.13168109130859373,8.250418920898436,-0.056094278,0.009642819,0.010677406,0.017578125
0.0,0.0,0.0,0.102055214,-0.026003465,0.9944389,0.9938113,-0.041411478,-0.1030737,-0.043861464,-0.9988038,-0.021616282,0.9121908325195311,-0.14125789794921875,8.207323291015625,-0.056094278,0.009642819,0.010677406,0.017333984
0.0,0.0,0.0,0.102055214,-0.026003465,0.9944389,0.9938113,-0.041411478,-0.1030737,-0.043861464,-0.9988038,-0.021616282,0.8595183959960937,-0.20350714111328125,8.238447912597655,-0.056094278,0.009642819,0.010677406,0.017333984
0.0,0.0,0.0,0.102055214,-0.026003465,0.9944389,0.9938113,-0.041411478,-0.1030737,-0.043861464,-0.9988038,-0.021616282,0.8714894042968749,-0.17477672119140625,8.250418920898436,-0.056094278,0.009642819,0.010677406,0.017456055
0.0,0.0,0.0,0.102055214,-0.026003465,0.9944389,0.9938113,-0.041411478,-0.1030737,-0.043861464,-0.9988038,-0.021616282,0.8786720092773437,-0.1388636962890625,8.224082702636718,-0.056094278,0.009642819,0.010677406,0.017456055
0.0,0.0,0.0,0.102055214,-0.026003465,0.9944389,0.9938113,-0.041411478,-0.1030737,-0.043861464,-0.9988038,-0.021616282,0.8547299926757812,-0.14125789794921875,8.281543542480469,-0.056094278,0.009642819,0.010677406,0.017456055
0.0,0.0,0.0,0.102055214,-0.026003465,0.9944389,0.9938113,-0.041411478,-0.1030737,-0.043861464,-0.9988038,-0.021616282,0.8834604125976562,-0.19632453613281248,8.245630517578125,-0.056094278,0.009642819,0.010677406,0.017456055
0.0,0.0,0.0,0.102055214,-0.026003465,0.9944389,0.9938113,-0.041411478,-0.1030737,-0.043861464,-0.9988038,-0.021616282,0.8547299926757812,-0.23223756103515625,8.250418920898436,-0.056094278,0.009642819,0.010677406,0.017456055
0.0,0.0,0.0,0.102055214,-0.026003465,0.9944389,0.9938113,-0.041411478,-0.1030737,-0.043861464,-0.9988038,-0.021616282,0.842758984375,-0.16280571289062498,8.271966735839843,-0.056094278,0.009642819,0.010677406,0.017578125
0.0,0.0,0.0,0.102055214,-0.026003465,0.9944389,0.9938113,-0.041411478,-0.1030737,-0.043861464,-0.9988038,-0.021616282,0.8858546142578124,-0.20350714111328125,8.245630517578125,-0.056094278,0.009642819,0.010677406,0.017944336
0.0,0.0,0.0,0.102055214,-0.026003465,0.9944389,0.9938113,-0.041411478,-0.1030737,-0.043861464,-0.9988038,-0.021616282,0.833182177734375,-0.18914193115234373,8.28633194580078,-0.056094278,0.009642819,0.010677406,0.017578125
0.0,0.0,0.0,0.102055214,-0.026003465,0.9944389,0.9938113,-0.041411478,-0.1030737,-0.043861464,-0.9988038,-0.021616282,0.7876923461914062,-0.21068974609375,8.24802471923828,-0.056094278,0.009642819,0.010677406,0.017333984
0.0,0.0,0.0,0.102055214,-0.026003465,0.9944389,0.9938113,-0.041411478,-0.1030737,-0.043861464,-0.9988038,-0.021616282,0.8499415893554687,-0.19153613281249998,8.264784130859374,-0.056094278,0.009642819,0.010677406,0.017456055
0.0,0.0,0.0,0.102055214,-0.026003465,0.9944389,0.9938113,-0.041411478,-0.1030737,-0.043861464,-0.9988038,-0.021616282,0.833182177734375,-0.1771709228515625,8.365340600585936,-0.056094278,0.009642819,0.010677406,0.017456055
0.0,0.0,0.0,0.102055214,-0.026003465,0.9944389,0.9938113,-0.041411478,-0.1030737,-0.043861464,-0.9988038,-0.021616282,0.8930372192382812,-0.21308394775390624,8.250418920898436,-0.056094278,0.009642819,0.010677406,0.017333984
0.0,0.0,0.0,0.102055214,-0.026003465,0.9944389,0.9938113,-0.041411478,-0.1030737,-0.043861464,-0.9988038,-0.021616282,0.8547299926757812,-0.18914193115234373,8.238447912597655,-0.056094278,0.009642819,0.010677406,0.017333984
0.0,0.0,0.0,0.102055214,-0.026003465,0.9944389,0.9938113,-0.041411478,-0.1030737,-0.043861464,-0.9988038,-0.021616282,0.8164227661132812,-0.23223756103515625,8.231265307617187,-0.056094278,0.009642819,0.010677406,0.017333984
0.0,0.0,0.0,0.102055214,-0.026003465,0.9944389,0.9938113,-0.041411478,-0.1030737,-0.043861464,-0.9988038,-0.021616282,0.7948749511718749,-0.16041151123046873,8.212111694335936,-0.056094278,0.009642819,0.010677406,0.017333984
0.0,0.0,0.0,0.102055214,-0.026003465,0.9944389,0.9938113,-0.041411478,-0.1030737,-0.043861464,-0.9988038,-0.021616282,0.8212111694335937,-0.16280571289062498,8.28633194580078,-0.056094278,0.009642819,0.010677406,0.017578125
0.0,0.0,0.0,0.102055214,-0.026003465,0.9944389,0.9938113,-0.041411478,-0.1030737,-0.043861464,-0.9988038,-0.021616282,0.8906430175781249,-0.16998831787109375,8.372523205566406,-0.056094278,0.009642819,0.010677406,0.017456055
0.0,0.0,0.0,0.102055214,-0.026003465,0.9944389,0.9938113,-0.041411478,-0.1030737,-0.043861464,-0.9988038,-0.021616282,0.8858546142578124,-0.19871873779296872,8.2743609375,-0.056094278,0.009642819,0.010677406,0.017456055
0.0,0.0,0.0,0.102055214,-0.026003465,0.9944389,0.9938113,-0.041411478,-0.1030737,-0.043861464,-0.9988038,-0.021616282,0.8810662109374999,-0.14125789794921875,8.295908752441406,-0.056094278,0.009642819,0.010677406,0.017456055
0.0,0.0,0.0,0.102055214,-0.026003465,0.9944389,0.9938113,-0.041411478,-0.1030737,-0.043861464,-0.9988038,-0.021616282,0.8188169677734375,-0.19393033447265623,8.259995727539062,-0.056094278,0.009642819,0.010677406,0.017456055
0.0,0.0,0.0,0.102055214,-0.026003465,0.9944389,0.9938113,-0.041411478,-0.1030737,-0.043861464,-0.9988038,-0.021616282,0.8786720092773437,-0.201112939453125,8.207323291015625,-0.056094278,0.009642819,0.010677406,0.017456055
0.0,0.0,0.0,0.102055214,-0.026003465,0.9944389,0.9938113,-0.041411478,-0.1030737,-0.043861464,-0.9988038,-0.021616282,0.8643067993164062,-0.1580173095703125,8.245630517578125,-0.056094278,0.009642819,0.010677406,0.017578125
0.0,0.0,0.0,0.102055214,-0.026003465,0.9944389,0.9938113,-0.041411478,-0.1030737,-0.043861464,-0.9988038,-0.021616282,0.8547299926757812,-0.15083470458984374,8.185775476074218,-0.056094278,0.009642819,0.010677406,0.017333984
0.0,0.0,0.0,0.102055214,-0.026003465,0.9944389,0.9938113,-0.041411478,-0.1030737,-0.043861464,-0.9988038,-0.021616282,0.8259995727539062,-0.181959326171875,8.240842114257813,-0.056094278,0.009642819,0.010677406,0.017333984
0.0,0.0,0.0,0.102055214,-0.026003465,0.9944389,0.9938113,-0.041411478,-0.1030737,-0.043861464,-0.9988038,-0.021616282,0.8882488159179687,-0.17477672119140625,8.2360537109375,-0.056094278,0.009642819,0.010677406,0.017456055
0.0,0.0,0.0,0.102055214,-0.026003465,0.9944389,0.9938113,-0.041411478,-0.1030737,-0.043861464,-0.9988038,-0.021616282,0.8810662109374999,-0.16280571289062498,8.252813122558594,-0.056094278,0.009642819,0.010677406,0.017456055
0.0,0.0,0.0,0.102055214,-0.026003465,0.9944389,0.9938113,-0.041411478,-0.1030737,-0.043861464,-0.9988038,-0.021616282,0.8834604125976562,-0.1580173095703125,8.283937744140625,-0.056094278,0.009642819,0.010677406,0.017333984
0.0,0.0,0.0,0.102055214,-0.026003465,0.9944389,0.9938113,-0.041411478,-0.1030737,-0.043861464,-0.9988038,-0.021616282,0.86191259765625,-0.16998831787109375,8.224082702636718,-0.056094278,0.009642819,0.010677406,0.017456055
0.0,0.0,0.0,0.102055214,-0.026003465,0.9944389,0.9938113,-0.041411478,-0.1030737,-0.043861464,-0.9988038,-0.021616282,0.8906430175781249,-0.24181436767578124,8.295908752441406,-0.056094278,0.009642819,0.010677406,0.017333984
0.0,0.0,0.0,0.102055214,-0.026003465,0.9944389,0.9938113,-0.041411478,-0.1030737,-0.043861464,-0.9988038,-0.021616282,0.8906430175781249,-0.1580173095703125,8.204929089355469,-0.056094278,0.009642819,0.010677406,0.018066406
0.0,0.0,0.0,0.102055214,-0.026003465,0.9944389,0.9938113,-0.041411478,-0.1030737,-0.043861464,-0.9988038,-0.021616282,0.9433154541015625,-0.1197100830078125,8.269572534179687,-0.056094278,0.009642819,0.010677406,0.017456055
0.0,0.0,0.0,0.102055214,-0.026003465,0.9944389,0.9938113,-0.041411478,-0.1030737,-0.043861464,-0.9988038,-0.021616282,0.8738836059570312,-0.17956512451171874,8.24802471923828,-0.056094278,0.009642819,0.010677406,0.017456055
0.0,0.0,0.0,0.102055214,-0.026003465,0.9944389,0.9938113,-0.041411478,-0.1030737,-0.043861464,-0.9988038,-0.021616282,0.8355763793945312,-0.201112939453125,8.310273962402343,-0.056094278,0.009642819,0.010677406,0.017456055
0.0,0.0,0.0,0.102055214,-0.026003465,0.9944389,0.9938113,-0.041411478,-0.1030737,-0.043861464,-0.9988038,-0.021616282,0.9169792358398436,-0.15322890625,8.228871105957031,-0.056094278,0.009642819,0.010677406,0.017456055
0.0,0.0,0.0,0.102055214,-0.026003465,0.9944389,0.9938113,-0.041411478,-0.1030737,-0.043861464,-0.9988038,-0.021616282,0.8882488159179687,-0.16759411621093748,8.291120349121094,-0.056094278,0.009642819,0.010677406,0.017578125
0.0,0.0,0.0,0.102055214,-0.026003465,0.9944389,0.9938113,-0.041411478,-0.1030737,-0.043861464,-0.9988038,-0.021616282,0.9002198242187499,-0.16280571289062498,8.262389929199218,-0.056094278,0.009642819,0.010677406,0.017456055
0.0,0.0,0.0,0.102055214,-0.026003465,0.9944389,0.9938113,-0.041411478,-0.1030737,-0.043861464,-0.9988038,-0.021616282,0.9433154541015625,-0.19153613281249998,8.25520732421875,-0.056094278,0.009642819,0.010677406,0.017333984
0.0,0.0,0.0,0.102055214,-0.026003465,0.9944389,0.9938113,-0.041411478,-0.1030737,-0.043861464,-0.9988038,-0.021616282,0.8954314208984374,-0.1484405029296875,8.307879760742187,-0.056094278,0.009642819,0.010677406,0.017333984
0.0,0.0,0.0,0.102055214,-0.026003465,0.9944389,0.9938113,-0.041411478,-0.1030737,-0.043861464,-0.9988038,-0.021616282,0.8690952026367187,-0.24899697265624998,8.224082702636718,-0.056094278,0.009642819,0.010677406,0.017333984
0.0,0.0,0.0,0.102055214,-0.026003465,0.9944389,0.9938113,-0.041411478,-0.1030737,-0.043861464,-0.9988038,-0.021616282,0.8906430175781249,-0.24181436767578124,8.224082702636718,-0.056094278,0.009642819,0.010677406,0.017456055
0.0,0.0,0.0,0.102055214,-0.026003465,0.9944389,0.9938113,-0.041411478,-0.1030737,-0.043861464,-0.9988038,-0.021616282,0.9074024291992187,-0.14604630126953125,8.279149340820313,-0.056094278,0.009642819,0.010677406,0.017456055
0.0,0.0,0.0,0.102055214,-0.026003465,0.9944389,0.9938113,-0.041411478,-0.1030737,-0.043861464,-0.9988038,-0.021616282,0.8499415893554687,-0.15083470458984374,8.317456567382813,-0.056094278,0.009642819,0.010677406,0.017456055
0.0,0.0,0.0,0.102055214,-0.026003465,0.9944389,0.9938113,-0.041411478,-0.1030737,-0.043861464,-0.9988038,-0.021616282,0.8810662109374999,-0.1484405029296875,8.226476904296874,-0.056094278,0.009642819,0.010677406,0.017456055
0.0,0.0,0.0,0.102055214,-0.026003465,0.9944389,0.9938113,-0.041411478,-0.1030737,-0.043861464,-0.9988038,-0.021616282,0.8283937744140625,-0.17238251953125,8.202534887695313,-0.056094278,0.009642819,0.010677406,0.017456055
0.0,0.0,0.0,0.102055214,-0.026003465,0.9944389,0.9938113,-0.041411478,-0.1030737,-0.043861464,-0.9988038,-0.021616282,0.8667010009765624,-0.20350714111328125,8.142679846191406,-0.056094278,0.009642819,0.010677406,0.017333984
0.0,0.0,0.0,0.102055214,-0.026003465,0.9944389,0.9938113,-0.041411478,-0.1030737,-0.043861464,-0.9988038,-0.021616282,0.8307879760742187,-0.1388636962890625,8.243236315917969,-0.056094278,0.009642819,0.010677406,0.017456055
0.0,0.0,0.0,0.102055214,-0.026003465,0.9944389,0.9938113,-0.041411478,-0.1030737,-0.043861464,-0.9988038,-0.021616282,0.8978256225585937,-0.13168109130859373,8.310273962402343,-0.056094278,0.009642819,0.010677406,0.017456055
0.0,0.0,0.0,0.102055214,-0.026003465,0.9944389,0.9938113,-0.041411478,-0.1030737,-0.043861464,-0.9988038,-0.021616282,0.8690952026367187,-0.15322890625,8.28633194580078,-0.056094278,0.009642819,0.010677406,0.017456055
0.0,0.0,0.0,0.102055214,-0.026003465,0.9944389,0.9938113,-0.041411478,-0.1030737,-0.043861464,-0.9988038,-0.021616282,0.8547299926757812,-0.19153613281249998,8.190563879394531,-0.056094278,0.009642819,0.010677406,0.017456055
0.0,0.0,0.0,0.102055214,-0.026003465,0.9944389,0.9938113,-0.041411478,-0.1030737,-0.043861464,-0.9988038,-0.021616282,0.82360537109375,-0.18435352783203124,8.276755139160155,-0.056094278,0.009642819,0.010677406,0.017333984
0.0,0.0,0.0,0.102055214,-0.026003465,0.9944389,0.9938113,-0.041411478,-0.1030737,-0.043861464,-0.9988038,-0.021616282,0.9097966308593749,-0.15083470458984374,8.166621862792969,-0.056094278,0.009642819,0.010677406,0.017578125
0.0,0.0,0.0,0.102055214,-0.026003465,0.9944389,0.9938113,-0.041411478,-0.1030737,-0.043861464,-0.9988038,-0.021616282,0.9097966308593749,-0.1580173095703125,8.192958081054687,-0.056094278,0.009642819,0.010677406,0.017456055
0.0,0.0,0.0,0.102055214,-0.026003465,0.9944389,0.9938113,-0.041411478,-0.1030737,-0.043861464,-0.9988038,-0.021616282,0.8475473876953125,-0.1197100830078125,8.2360537109375,-0.056094278,0.009642819,0.010677406,0.017456055
0.0,0.0,0.0,0.102055214,-0.026003465,0.9944389,0.9938113,-0.041411478,-0.1030737,-0.043861464,-0.9988038,-0.021616282,0.8738836059570312,-0.13646949462890623,8.252813122558594,-0.056094278,0.009642819,0.010677406,0.017944336
0.0,0.0,0.0,0.102055214,-0.026003465,0.9944389,0.9938113,-0.041411478,-0.1030737,-0.043861464,-0.9988038,-0.021616282,0.8092401611328125,-0.12689268798828124,8.238447912597655,-0.056094278,0.009642819,0.010677406,0.017456055
0.0,0.0,0.0,0.102055214,-0.026003465,0.9944389,0.9938113,-0.041411478,-0.1030737,-0.043861464,-0.9988038,-0.021616282,0.8092401611328125,-0.20350714111328125,8.250418920898436,-0.056094278,0.009642819,0.010677406,0.017578125
0.0,0.0,0.0,0.102055214,-0.026003465,0.9944389,0.9938113,-0.041411478,-0.1030737,-0.043861464,-0.9988038,-0.021616282,0.8714894042968749,-0.17956512451171874,8.245630517578125,-0.056094278,0.009642819,0.010677406,0.017456055
0.0,0.0,0.0,0.102055214,-0.026003465,0.9944389,0.9938113,-0.041411478,-0.1030737,-0.043861464,-0.9988038,-0.021616282,0.8978256225585937,-0.2154781494140625,8.169016064453125,-0.056094278,0.009642819,0.010677406,0.017456055
0.0,0.0,0.0,0.102055214,-0.026003465,0.9944389,0.9938113,-0.041411478,-0.1030737,-0.043861464,-0.9988038,-0.021616282,0.8643067993164062,-0.1867477294921875,8.204929089355469,-0.056094278,0.009642819,0.010677406,0.017456055
0.0,0.0,0.0,0.102055214,-0.026003465,0.9944389,0.9938113,-0.041411478,-0.1030737,-0.043861464,-0.9988038,-0.021616282,0.8355763793945312,-0.1580173095703125,8.269572534179687,-0.056094278,0.009642819,0.010677406,0.017456055
0.0,0.0,0.0,0.102055214,-0.026003465,0.9944389,0.9938113,-0.041411478,-0.1030737,-0.043861464,-0.9988038,-0.021616282,0.8379705810546875,-0.17477672119140625,8.147468249511718,-0.056094278,0.009642819,0.010677406,0.017456055
0.0,0.0,0.0,0.102055214,-0.026003465,0.9944389,0.9938113,-0.041411478,-0.1030737,-0.043861464,-0.9988038,-0.021616282,0.8690952026367187,-0.16759411621093748,8.257601525878906,-0.056094278,0.009642819,0.010677406,0.017456055
0.0,0.0,0.0,0.102055214,-0.026003465,0.9944389,0.9938113,-0.041411478,-0.1030737,-0.043861464,-0.9988038,-0.021616282,0.8307879760742187,-0.19393033447265623,8.315062365722655,-0.056094278,0.009642819,0.010677406,0.017456055
0.0,0.0,0.0,0.102055214,-0.026003465,0.9944389,0.9938113,-0.041411478,-0.1030737,-0.043861464,-0.9988038,-0.021616282,0.8643067993164062,-0.1580173095703125,8.262389929199218,-0.056094278,0.009642819,0.010677406,0.017456055
0.0,0.0,0.0,0.102055214,-0.026003465,0.9944389,0.9938113,-0.041411478,-0.1030737,-0.043861464,-0.9988038,-0.021616282,0.8882488159179687,-0.20350714111328125,8.257601525878906,-0.056094278,0.009642819,0.010677406,0.017456055
0.0,0.0,0.0,0.102055214,-0.026003465,0.9944389,0.9938113,-0.041411478,-0.1030737,-0.043861464,-0.9988038,-0.021616282,0.8954314208984374,-0.19632453613281248,8.224082702636718,-0.056094278,0.009642819,0.010677406,0.017456055
0.0,0.0,0.0,0.102055214,-0.026003465,0.9944389,0.9938113,-0.041411478,-0.1030737,-0.043861464,-0.9988038,-0.021616282,0.8834604125976562,-0.19632453613281248,8.279149340820313,-0.056094278,0.009642819,0.010677406,0.017456055
0.0,0.0,0.0,0.102055214,-0.026003465,0.9944389,0.9938113,-0.041411478,-0.1030737,-0.043861464,-0.9988038,-0.021616282,0.8786720092773437,-0.15322890625,8.334215979003906,-0.056094278,0.009642819,0.010677406,0.017456055
0.0,0.0,0.0,0.102055214,-0.026003465,0.9944389,0.9938113,-0.041411478,-0.1030737,-0.043861464,-0.9988038,-0.021616282,0.8738836059570312,-0.21068974609375,8.238447912597655,-0.056094278,0.009642819,0.010677406,0.017456055
0.0,0.0,0.0,0.102055214,-0.026003465,0.9944389,0.9938113,-0.041411478,-0.1030737,-0.043861464,-0.9988038,-0.021616282,0.8978256225585937,-0.19632453613281248,8.295908752441406,-0.056094278,0.009642819,0.010677406,0.017456055
0.0,0.0,0.0,0.102055214,-0.026003465,0.9944389,0.9938113,-0.041411478,-0.1030737,-0.043861464,-0.9988038,-0.021616282,0.9002198242187499,-0.16759411621093748,8.281543542480469,-0.056094278,0.009642819,0.010677406,0.017456055
0.0,0.0,0.0,0.102055214,-0.026003465,0.9944389,0.9938113,-0.041411478,-0.1030737,-0.043861464,-0.9988038,-0.021616282,0.8762778076171874,-0.1388636962890625,8.2743609375,-0.056094278,0.009642819,0.010677406,0.017333984
0.0,0.0,0.0,0.102055214,-0.026003465,0.9944389,0.9938113,-0.041411478,-0.1030737,-0.043861464,-0.9988038,-0.021616282,0.8690952026367187,-0.1867477294921875,8.25520732421875,-0.056094278,0.009642819,0.010677406,0.017578125
0.0,0.0,0.0,0.102055214,-0.026003465,0.9944389,0.9938113,-0.041411478,-0.1030737,-0.043861464,-0.9988038,-0.021616282,0.8403647827148437,-0.18914193115234373,8.219294299316406,-0.056094278,0.009642819,0.010677406,0.017456055
0.0,0.0,0.0,0.102055214,-0.026003465,0.9944389,0.9938113,-0.041411478,-0.1030737,-0.043861464,-0.9988038,-0.021616282,0.8451531860351562,-0.2154781494140625,8.33182177734375,-0.056094278,0.009642819,0.010677406,0.017456055
0.0,0.0,0.0,0.102055214,-0.026003465,0.9944389,0.9938113,-0.041411478,-0.1030737,-0.043861464,-0.9988038,-0.021616282,0.8690952026367187,-0.17477672119140625,8.262389929199218,-0.056094278,0.009642819,0.010677406,0.017456055
0.0,0.0,0.0,0.102055214,-0.026003465,0.9944389,0.9938113,-0.041411478,-0.1030737,-0.043861464,-0.9988038,-0.021616282,0.8714894042968749,-0.1580173095703125,8.233659509277343,-0.056094278,0.009642819,0.010677406,0.017944336
0.0,0.0,0.0,0.102055214,-0.026003465,0.9944389,0.9938113,-0.041411478,-0.1030737,-0.043861464,-0.9988038,-0.021616282,0.833182177734375,-0.13407529296874998,8.281543542480469,-0.056094278,0.009642819,0.010677406,0.017456055
0.0,0.0,0.0,0.102055214,-0.026003465,0.9944389,0.9938113,-0.041411478,-0.1030737,-0.043861464,-0.9988038,-0.021616282,0.8044517578125,-0.1771709228515625,8.240842114257813,-0.056094278,0.009642819,0.010677406,0.017456055
0.0,0.0,0.0,0.102055214,-0.026003465,0.9944389,0.9938113,-0.041411478,-0.1030737,-0.043861464,-0.9988038,-0.021616282,0.9193734375,-0.20350714111328125,8.190563879394531,-0.056094278,0.009642819,0.010677406,0.017456055
0.0,0.0,0.0,0.102055214,-0.026003465,0.9944389,0.9938113,-0.041411478,-0.1030737,-0.043861464,-0.9988038,-0.021616282,0.8930372192382812,-0.21787235107421873,8.21690009765625,-0.056094278,0.009642819,0.010677406,0.017456055
0.0,0.0,0.0,0.102055214,-0.026003465,0.9944389,0.9938113,-0.041411478,-0.1030737,-0.043861464,-0.9988038,-0.021616282,0.9193734375,-0.1580173095703125,8.161833459472655,-0.056094278,0.009642819,0.010677406,0.017456055
0.0,0.0,0.0,0.102055214,-0.026003465,0.9944389,0.9938113,-0.041411478,-0.1030737,-0.043861464,-0.9988038,-0.021616282,0.9074024291992187,-0.13646949462890623,8.233659509277343,-0.056094278,0.009642819,0.010677406,0.017456055
0.0,0.0,0.0,0.102055214,-0.026003465,0.9944389,0.9938113,-0.041411478,-0.1030737,-0.043861464,-0.9988038,-0.021616282,0.9193734375,-0.09816226806640624,8.231265307617187,-0.056094278,0.009642819,0.010677406,0.017456055
0.0,0.0,0.0,0.102055214,-0.026003465,0.9944389,0.9938113,-0.041411478,-0.1030737,-0.043861464,-0.9988038,-0.021616282,0.8451531860351562,-0.1771709228515625,8.281543542480469,-0.056094278,0.009642819,0.010677406,0.017333984
0.0,0.0,0.0,0.102055214,-0.026003465,0.9944389,0.9938113,-0.041411478,-0.1030737,-0.043861464,-0.9988038,-0.021616282,0.8762778076171874,-0.20350714111328125,8.252813122558594,-0.056094278,0.009642819,0.010677406,0.017456055
0.0,0.0,0.0,0.102055214,-0.026003465,0.9944389,0.9938113,-0.041411478,-0.1030737,-0.043861464,-0.9988038,-0.021616282,0.8451531860351562,-0.10295067138671875,8.245630517578125,-0.056094278,0.009642819,0.010677406,0.017456055
0.0,0.0,0.0,0.102055214,-0.026003465,0.9944389,0.9938113,-0.041411478,-0.1030737,-0.043861464,-0.9988038,-0.021616282,0.7996633544921875,-0.1292868896484375,8.300697155761718,-0.056094278,0.009642819,0.010677406,0.017456055
0.0,0.0,0.0,0.102055214,-0.026003465,0.9944389,0.9938113,-0.041411478,-0.1030737,-0.043861464,-0.9988038,-0.021616282,0.852335791015625,-0.1484405029296875,8.250418920898436,-0.056094278,0.009642819,0.010677406,0.017456055
0.0,0.0,0.0,0.102055214,-0.026003465,0.9944389,0.9938113,-0.041411478,-0.1030737,-0.043861464,-0.9988038,-0.021616282,0.8499415893554687,-0.16998831787109375,8.214505895996094,-0.056094278,0.009642819,0.010677406,0.017456055
0.0,0.0,0.0,0.102055214,-0.026003465,0.9944389,0.9938113,-0.041411478,-0.1030737,-0.043861464,-0.9988038,-0.021616282,0.8786720092773437,-0.17477672119140625,8.154650854492187,-0.056094278,0.009642819,0.010677406,0.017456055
0.0,0.0,0.0,0.102055214,-0.026003465,0.9944389,0.9938113,-0.041411478,-0.1030737,-0.043861464,-0.9988038,-0.021616282,0.9265560424804687,-0.181959326171875,8.295908752441406,-0.056094278,0.009642819,0.010677406,0.017456055
0.0,0.0,0.0,0.102055214,-0.026003465,0.9944389,0.9938113,-0.041411478,-0.1030737,-0.043861464,-0.9988038,-0.021616282,0.7972691528320313,-0.12689268798828124,8.221688500976562,-0.056094278,0.009642819,0.010677406,0.017333984
0.0,0.0,0.0,0.102055214,-0.026003465,0.9944389,0.9938113,-0.041411478,-0.1030737,-0.043861464,-0.9988038,-0.021616282,0.8547299926757812,-0.143652099609375,8.197746484375,-0.056094278,0.009642819,0.010677406,0.017700195
0.0,0.0,0.0,0.102055214,-0.026003465,0.9944389,0.9938113,-0.041411478,-0.1030737,-0.043861464,-0.9988038,-0.021616282,0.8882488159179687,-0.16280571289062498,8.25520732421875,-0.056094278,0.009642819,0.010677406,0.017944336
0.0,0.0,0.0,0.102055214,-0.026003465,0.9944389,0.9938113,-0.041411478,-0.1030737,-0.043861464,-0.9988038,-0.021616282,0.8571241943359375,-0.14125789794921875,8.180987072753906,-0.056094278,0.009642819,0.010677406,0.017822266
0.0,0.0,0.0,0.102055214,-0.026003465,0.9944389,0.9938113,-0.041411478,-0.1030737,-0.043861464,-0.9988038,-0.021616282,0.82360537109375,-0.201112939453125,8.243236315917969,-0.056094278,0.009642819,0.010677406,0.017822266
0.0,0.0,0.0,0.102055214,-0.026003465,0.9944389,0.9938113,-0.041411478,-0.1030737,-0.043861464,-0.9988038,-0.021616282,0.8307879760742187,-0.181959326171875,8.221688500976562,-0.056094278,0.009642819,0.010677406,0.017822266
0.0,0.0,0.0,0.102055214,-0.026003465,0.9944389,0.9938113,-0.041411478,-0.1030737,-0.043861464,-0.9988038,-0.021616282,0.8882488159179687,-0.10295067138671875,8.214505895996094,-0.056094278,0.009642819,0.010677406,0.017944336
0.0,0.0,0.0,0.102055214,-0.026003465,0.9944389,0.9938113,-0.041411478,-0.1030737,-0.043861464,-0.9988038,-0.021616282,0.814028564453125,-0.11731588134765625,8.327033374023436,-0.056094278,0.009642819,0.010677406,0.018310547
0.0,0.0,0.0,0.102055214,-0.026003465,0.9944389,0.9938113,-0.041411478,-0.1030737,-0.043861464,-0.9988038,-0.021616282,0.8858546142578124,-0.143652099609375,8.288726147460936,-0.056094278,0.009642819,0.010677406,0.017578125
0.0,0.0,0.0,0.102055214,-0.026003465,0.9944389,0.9938113,-0.041411478,-0.1030737,-0.043861464,-0.9988038,-0.021616282,0.8475473876953125,-0.0909796630859375,8.226476904296874,-0.056094278,0.009642819,0.010677406,0.017456055
0.0,0.0,0.0,0.102055214,-0.026003465,0.9944389,0.9938113,-0.041411478,-0.1030737,-0.043861464,-0.9988038,-0.021616282,0.86191259765625,-0.21308394775390624,8.180987072753906,-0.056094278,0.009642819,0.010677406,0.017456055
0.0,0.0,0.0,0.102055214,-0.026003465,0.9944389,0.9938113,-0.041411478,-0.1030737,-0.043861464,-0.9988038,-0.021616282,0.8882488159179687,-0.19871873779296872,8.231265307617187,-0.056094278,0.009642819,0.010677406,0.017333984
0.0,0.0,0.0,0.102055214,-0.026003465,0.9944389,0.9938113,-0.041411478,-0.1030737,-0.043861464,-0.9988038,-0.021616282,0.8451531860351562,-0.19153613281249998,8.307879760742187,-0.056094278,0.009642819,0.010677406,0.017333984
0.0,0.0,0.0,0.102055214,-0.026003465,0.9944389,0.9938113,-0.041411478,-0.1030737,-0.043861464,-0.9988038,-0.021616282,0.9145850341796874,-0.1484405029296875,8.154650854492187,-0.056094278,0.009642819,0.010677406,0.017578125
0.0,0.0,0.0,0.102055214,-0.026003465,0.9944389,0.9938113,-0.041411478,-0.1030737,-0.043861464,-0.9988038,-0.021616282,0.8259995727539062,-0.1484405029296875,8.2360537109375,-0.056094278,0.009642819,0.010677406,0.017333984
0.0,0.0,0.0,0.102055214,-0.026003465,0.9944389,0.9938113,-0.041411478,-0.1030737,-0.043861464,-0.9988038,-0.021616282,0.9145850341796874,-0.16519991455078123,8.21690009765625,-0.056094278,0.009642819,0.010677406,0.017333984
0.0,0.0,0.0,0.102055214,-0.026003465,0.9944389,0.9938113,-0.041411478,-0.1030737,-0.043861464,-0.9988038,-0.021616282,0.8643067993164062,-0.07900865478515624,8.276755139160155,-0.056094278,0.009642819,0.010677406,0.017456055
0.0,0.0,0.0,0.102055214,-0.026003465,0.9944389,0.9938113,-0.041411478,-0.1030737,-0.043861464,-0.9988038,-0.021616282,0.8403647827148437,-0.1484405029296875,8.17141026611328,-0.056094278,0.009642819,0.010677406,0.017456055
0.0,0.0,0.0,0.102055214,-0.026003465,0.9944389,0.9938113,-0.041411478,-0.1030737,-0.043861464,-0.9988038,-0.021616282,0.8188169677734375,-0.12449848632812499,8.259995727539062,-0.056094278,0.009642819,0.010677406,0.017578125
0.0,0.0,0.0,0.102055214,-0.026003465,0.9944389,0.9938113,-0.041411478,-0.1030737,-0.043861464,-0.9988038,-0.021616282,0.8834604125976562,-0.17477672119140625,8.250418920898436,-0.056094278,0.009642819,0.010677406,0.017944336
0.0,0.0,0.0,0.102055214,-0.026003465,0.9944389,0.9938113,-0.041411478,-0.1030737,-0.043861464,-0.9988038,-0.021616282,0.814028564453125,-0.181959326171875,8.279149340820313,-0.056094278,0.009642819,0.010677406,0.017822266
0.0,0.0,0.0,0.102055214,-0.026003465,0.9944389,0.9938113,-0.041411478,-0.1030737,-0.043861464,-0.9988038,-0.021616282,0.8810662109374999,-0.1388636962890625,8.319850769042969,-0.056094278,0.009642819,0.010677406,0.017822266
0.0,0.0,0.0,0.102055214,-0.026003465,0.9944389,0.9938113,-0.041411478,-0.1030737,-0.043861464,-0.9988038,-0.021616282,0.8547299926757812,-0.1771709228515625,8.257601525878906,-0.056094278,0.009642819,0.010677406,0.017822266
0.0,0.0,0.0,0.102055214,-0.026003465,0.9944389,0.9938113,-0.041411478,-0.1030737,-0.043861464,-0.9988038,-0.021616282,0.8930372192382812,-0.11252747802734374,8.305485559082031,-0.056094278,0.009642819,0.010677406,0.017944336
0.0,0.0,0.0,0.102055214,-0.026003465,0.9944389,0.9938113,-0.041411478,-0.1030737,-0.043861464,-0.9988038,-0.021616282,0.8595183959960937,-0.13168109130859373,8.202534887695313,-0.056094278,0.009642819,0.010677406,0.017578125
0.0,0.0,0.0,0.102055214,-0.026003465,0.9944389,0.9938113,-0.041411478,-0.1030737,-0.043861464,-0.9988038,-0.021616282,0.9050082275390624,-0.143652099609375,8.295908752441406,-0.056094278,0.009642819,0.010677406,0.017578125
0.0,0.0,0.0,0.102055214,-0.026003465,0.9944389,0.9938113,-0.041411478,-0.1030737,-0.043861464,-0.9988038,-0.021616282,0.9409212524414062,-0.19153613281249998,8.202534887695313,-0.056094278,0.009642819,0.010677406,0.017456055
0.0,0.0,0.0,0.102055214,-0.026003465,0.9944389,0.9938113,-0.041411478,-0.1030737,-0.043861464,-0.9988038,-0.021616282,0.8786720092773437,-0.2154781494140625,8.233659509277343,-0.056094278,0.009642819,0.010677406,0.017456055
0.0,0.0,0.0,0.102055214,-0.026003465,0.9944389,0.9938113,-0.041411478,-0.1030737,-0.043861464,-0.9988038,-0.021616282,0.8307879760742187,-0.13168109130859373,8.283937744140625,-0.056094278,0.009642819,0.010677406,0.017456055
0.0,0.0,0.0,0.102055214,-0.026003465,0.9944389,0.9938113,-0.041411478,-0.1030737,-0.043861464,-0.9988038,-0.021616282,0.7589619262695312,-0.19393033447265623,8.281543542480469,-0.056094278,0.009642819,0.010677406,0.017456055
0.0,0.0,0.0,0.102055214,-0.026003465,0.9944389,0.9938113,-0.041411478,-0.1030737,-0.043861464,-0.9988038,-0.021616282,0.9097966308593749,-0.16041151123046873,8.224082702636718,-0.056094278,0.009642819,0.010677406,0.017700195
0.0,0.0,0.0,0.102055214,-0.026003465,0.9944389,0.9938113,-0.041411478,-0.1030737,-0.043861464,-0.9988038,-0.021616282,0.9241618408203125,-0.20350714111328125,8.2743609375,-0.056094278,0.009642819,0.010677406,0.018432617
0.0,0.0,0.0,0.102055214,-0.026003465,0.9944389,0.9938113,-0.041411478,-0.1030737,-0.043861464,-0.9988038,-0.021616282,0.8020575561523438,-0.19153613281249998,8.233659509277343,-0.056094278,0.009642819,0.010677406,0.018066406
0.0,0.0,0.0,0.102055214,-0.026003465,0.9944389,0.9938113,-0.041411478,-0.1030737,-0.043861464,-0.9988038,-0.021616282,0.8499415893554687,-0.1484405029296875,8.262389929199218,-0.056094278,0.009642819,0.010677406,0.017822266
0.0,0.0,0.0,0.102055214,-0.026003465,0.9944389,0.9938113,-0.041411478,-0.1030737,-0.043861464,-0.9988038,-0.021616282,0.9074024291992187,-0.0909796630859375,8.271966735839843,-0.056094278,0.009642819,0.010677406,0.017822266
0.0,0.0,0.0,0.102055214,-0.026003465,0.9944389,0.9938113,-0.041411478,-0.1030737,-0.043861464,-0.9988038,-0.021616282,0.8164227661132812,-0.16759411621093748,8.25520732421875,-0.056094278,0.009642819,0.010677406,0.017822266
0.0,0.0,0.0,0.102055214,-0.026003465,0.9944389,0.9938113,-0.041411478,-0.1030737,-0.043861464,-0.9988038,-0.021616282,0.8595183959960937,-0.16280571289062498,8.327033374023436,-0.056094278,0.009642819,0.010677406,0.017944336
0.0,0.0,0.0,0.102055214,-0.026003465,0.9944389,0.9938113,-0.041411478,-0.1030737,-0.043861464,-0.9988038,-0.021616282,0.9050082275390624,-0.19871873779296872,8.192958081054687,-0.056094278,0.009642819,0.010677406,0.017333984
0.0,0.0,0.0,0.102055214,-0.026003465,0.9944389,0.9938113,-0.041411478,-0.1030737,-0.043861464,-0.9988038,-0.021616282,0.8068459594726562,-0.19632453613281248,8.231265307617187,-0.056094278,0.009642819,0.010677406,0.017333984
0.0,0.0,0.0,0.102055214,-0.026003465,0.9944389,0.9938113,-0.041411478,-0.1030737,-0.043861464,-0.9988038,-0.021616282,0.8690952026367187,-0.17477672119140625,8.228871105957031,-0.056094278,0.009642819,0.010677406,0.017456055
0.0,0.0,0.0,0.102055214,-0.026003465,0.9944389,0.9938113,-0.041411478,-0.1030737,-0.043861464,-0.9988038,-0.021616282,0.9816226806640624,-0.16280571289062498,8.207323291015625,-0.056094278,0.009642819,0.010677406,0.017456055
0.0,0.0,0.0,0.102055214,-0.026003465,0.9944389,0.9938113,-0.041411478,-0.1030737,-0.043861464,-0.9988038,-0.021616282,0.9193734375,-0.17477672119140625,8.305485559082031,-0.056094278,0.009642819,0.010677406,0.017456055
0.0,0.0,0.0,0.102055214,-0.026003465,0.9944389,0.9938113,-0.041411478,-0.1030737,-0.043861464,-0.9988038,-0.021616282,0.9097966308593749,-0.22026655273437498,8.267178332519531,-0.056094278,0.009642819,0.010677406,0.017456055
0.0,0.0,0.0,0.102055214,-0.026003465,0.9944389,0.9938113,-0.041411478,-0.1030737,-0.043861464,-0.9988038,-0.021616282,0.82360537109375,-0.11013327636718749,8.212111694335936,-0.056094278,0.009642819,0.010677406,0.017333984
0.0,0.0,0.0,0.102055214,-0.026003465,0.9944389,0.9938113,-0.041411478,-0.1030737,-0.043861464,-0.9988038,-0.021616282,0.7900865478515624,-0.20350714111328125,8.353369592285155,-0.056094278,0.009642819,0.010677406,0.017456055
0.0,0.0,0.0,0.102055214,-0.026003465,0.9944389,0.9938113,-0.041411478,-0.1030737,-0.043861464,-0.9988038,-0.021616282,0.8595183959960937,-0.14604630126953125,8.252813122558594,-0.056094278,0.009642819,0.010677406,0.017456055
0.0,0.0,0.0,0.102055214,-0.026003465,0.9944389,0.9938113,-0.041411478,-0.1030737,-0.043861464,-0.9988038,-0.021616282,0.8810662109374999,-0.181959326171875,8.183381274414062,-0.056094278,0.009642819,0.010677406,0.017456055
0.0,0.0,0.0,0.102055214,-0.026003465,0.9944389,0.9938113,-0.041411478,-0.1030737,-0.043861464,-0.9988038,-0.021616282,0.93852705078125,-0.2059013427734375,8.250418920898436,-0.056094278,0.009642819,0.010677406,0.017456055
