GyroX,GyroY,GyroZ,ExpGravityX,ExpGravityY,ExpGravityZ,ExpOxX,ExpOxY,ExpOxZ,ExpOyX,ExpOyY,ExpOyZ,AccX,AccY,AccZ,AccNoiseX,AccNoiseY,AccNoiseZ,ExpSpeedX,ExpSpeedY,ExpSpeedZ,dT
0.0,0.0,0.0,0.10289459,-0.022908771,0.9944284,0.9946923,0.0023697668,-0.102867305,0.0,-0.99973476,-0.023031015,-0.0392649736404419,0.048722027802467344,-0.010631317138672713,-0.0001963248682022095,0.00024361013901233672,-5.315658569336357e-05,0.0,0.0,0.0,0.004501343
0.0,0.0,0.0,0.10289459,-0.022908771,0.9944284,0.9946923,0.0023697668,-0.102867305,0.0,-0.99973476,-0.023031015,0.022984269523620537,-0.008738812041282629,-0.04415014038085907,-8.042189624309578e-05,0.0001986980281108619,-0.0002736415046691921,0.0,0.0,0.0,0.025924683
0.0,0.0,0.0,0.10289459,-0.022908771,0.9944284,0.9946923,0.0023697668,-0.102867305,0.0,-0.99973476,-0.023031015,0.027772672843933033,0.019991607880592344,-0.013025518798828628,5.884357745778487e-05,0.0002976625773732693,-0.0003374008911399893,0.0,0.0,0.0,0.025787354
0.0,0.0,0.0,0.10289459,-0.022908771,0.9944284,0.9946923,0.0023697668,-0.102867305,0.0,-0.99973476,-0.023031015,-0.005746150398254435,0.03196261618137361,0.013310699462889986,2.9818607579223767e-05,0.000455987345393271,-0.0002691603893698394,0.0,0.0,0.0,0.025787354
0.0,0.0,0.0,0.10289459,-0.022908771,0.9944284,0.9946923,0.0023697668,-0.102867305,0.0,-0.99973476,-0.023031015,-0.005746150398254435,0.03435681784152986,0.04682952270507812,9.387625500554757e-07,0.0006254914978739539,-3.3666973897599595e-05,0.0,0.0,0.0,0.025772095
0.0,0.0,0.0,0.10289459,-0.022908771,0.9944284,0.9946923,0.0023697668,-0.102867305,0.0,-0.99973476,-0.023031015,0.027772672843933033,-0.05183444192409514,0.013310699462889986,0.00013979743295697037,0.00036319183076410845,3.305485828633833e-05,0.0,0.0,0.0,0.025802612
0.0,0.0,0.0,0.10289459,-0.022908771,0.9944284,0.9946923,0.0023697668,-0.102867305,0.0,-0.99973476,-0.023031015,0.034955277824401776,0.0056263979196548575,-0.02020812377929815,0.00031387483491419443,0.0003895078612085622,-6.815103490158411e-05,0.0,0.0,0.0,0.025741577
0.0,0.0,0.0,0.10289459,-0.022908771,0.9944284,0.9946923,0.0023697668,-0.102867305,0.0,-0.99973476,-0.023031015,-0.01053455371856693,0.015203204560279848,0.07555994262695265,0.0002596326921467888,0.0004635763447039186,0.00030998943340768706,0.0,0.0,0.0,0.025787354
0.0,0.0,0.0,0.10289459,-0.022908771,0.9944284,0.9946923,0.0023697668,-0.102867305,0.0,-0.99973476,-0.023031015,0.0014364545822143082,-0.011133013701438904,0.05640632934570178,0.00026551680159712644,0.00040559339447320447,0.0005904711329691576,0.0,0.0,0.0,0.025741577
0.0,0.0,0.0,0.10289459,-0.022908771,0.9944284,0.9946923,0.0023697668,-0.102867305,0.0,-0.99973476,-0.023031015,-0.017717158699035673,0.0032321962594986098,0.020493304443359506,0.0001756034240939624,0.0004197264087983315,0.0006899852995211094,0.0,0.0,0.0,0.025772095
0.0,0.0,0.0,0.10289459,-0.022908771,0.9944284,0.9946923,0.0023697668,-0.102867305,0.0,-0.99973476,-0.023031015,0.006224857902526804,0.015203204560279848,-0.04654434204101676,0.0002058496964861266,0.0004936437995557391,0.00045381366281842,0.0,0.0,0.0,0.025772095
0.0,0.0,0.0,0.10289459,-0.022908771,0.9944284,0.9946923,0.0023697668,-0.102867305,0.0,-0.99973476,-0.023031015,0.05410889110565176,-0.0015562070608138856,0.042041119384764514,0.00047536490353195475,0.0004833945452538909,0.0006617501914281505,0.0,0.0,0.0,0.026016235
0.0,0.0,0.0,0.10289459,-0.022908771,0.9944284,0.9946923,0.0023697668,-0.102867305,0.0,-0.99973476,-0.023031015,0.04213788280487052,-0.003950408720970133,-0.008237115478516799,0.0006836774930386476,0.00046122552892277076,0.0006172558630784257,0.0,0.0,0.0,0.025878906
0.0,0.0,0.0,0.10289459,-0.022908771,0.9944284,0.9946923,0.0023697668,-0.102867305,0.0,-0.99973476,-0.023031015,0.03256107616424553,0.010414801239967353,-0.03936173706054724,0.000843064486394682,0.0005109934074779937,0.00041736089846029735,0.0,0.0,0.0,0.025756836
0.0,0.0,0.0,0.10289459,-0.022908771,0.9944284,0.9946923,0.0023697668,-0.102867305,0.0,-0.99973476,-0.023031015,-0.02011136035919192,-0.02549822366237639,0.07555994262695265,0.000738292362166749,0.0003809473221287218,0.0007930738071027591,0.0,0.0,0.0,0.025772095
0.0,0.0,0.0,0.10289459,-0.022908771,0.9944284,0.9946923,0.0023697668,-0.102867305,0.0,-0.99973476,-0.023031015,0.006224857902526804,0.027174212861061114,0.02767590942382725,0.0007657251898685494,0.0005149136498233838,0.0009274879851863815,0.0,0.0,0.0,0.025726318
0.0,0.0,0.0,0.10289459,-0.022908771,0.9944284,0.9946923,0.0023697668,-0.102867305,0.0,-0.99973476,-0.023031015,0.018195866203308042,0.0128090029001236,0.049223724365234034,0.0008528758949357468,0.0005763840960748849,0.0011689691670866199,0.0,0.0,0.0,0.025772095
0.0,0.0,0.0,0.10289459,-0.022908771,0.9944284,0.9946923,0.0023697668,-0.102867305,0.0,-0.99973476,-0.023031015,-0.0392649736404419,0.0128090029001236,-0.060909552001954026,0.0006522866472588587,0.0006375471900951285,0.0008585765612414167,0.0,0.0,0.0,0.025741577
0.0,0.0,0.0,0.10289459,-0.022908771,0.9944284,0.9946923,0.0023697668,-0.102867305,0.0,-0.99973476,-0.023031015,-0.07757220020294198,-0.006344610381126381,0.15217439575195257,0.00026116421300785445,0.0006026364022390209,0.0016151556571949726,0.0,0.0,0.003917209,0.025741577
0.0,0.0,0.0,0.10289459,-0.022908771,0.9944284,0.9946923,0.0023697668,-0.102867305,0.0,-0.99973476,-0.023031015,-0.058418586921691995,0.0654814394235611,0.05640632934570178,-3.2234542665644805e-05,0.0009270304173456313,0.0018891115256375066,0.0,0.0,0.003917209,0.025741577
0.0,0.0,0.0,0.10289459,-0.022908771,0.9944284,0.9946923,0.0023697668,-0.102867305,0.0,-0.99973476,-0.023031015,-0.02250556201934817,0.0032321962594986098,-0.005842913818359108,-0.00014460118004905743,0.0009385562465563961,0.0018504513989175235,0.0,0.0,0.003917209,0.025726318
0.0,0.0,0.0,0.10289459,-0.022908771,0.9944284,0.9946923,0.0023697668,-0.102867305,0.0,-0.99973476,-0.023031015,-0.06560119190216074,0.0032321962594986098,0.018099102783201815,-0.0004718841336596158,0.0009500244466211071,0.0019316946558389449,0.0,0.0,0.003917209,0.025772095
0.0,0.0,0.0,0.10289459,-0.022908771,0.9944284,0.9946923,0.0023697668,-0.102867305,0.0,-0.99973476,-0.023031015,0.027772672843933033,0.0128090029001236,0.0635889343261713,-0.0003306613487716526,0.0010093193388886195,0.0022399808541906066,0.0,0.0,0.003917209,0.025726318
0.0,0.0,0.0,0.10289459,-0.022908771,0.9944284,0.9946923,0.0023697668,-0.102867305,0.0,-0.99973476,-0.023031015,0.046926286125183014,0.06787564108371735,-0.03457333374023541,-9.437661140187931e-05,0.001343650947612763,0.0020559142812184763,0.0,0.0,0.003917209,0.025787354
0.0,0.0,0.0,0.10289459,-0.022908771,0.9944284,0.9946923,0.0023697668,-0.102867305,0.0,-0.99973476,-0.023031015,-0.05363018360137939,-0.04704603860378265,-0.010631317138672713,-0.00036205564635176683,0.001101702499855786,0.0019924781241190204,0.0,0.0,0.003917209,0.025741577
0.0,0.0,0.0,0.10289459,-0.022908771,0.9944284,0.9946923,0.0023697668,-0.102867305,0.0,-0.99973476,-0.023031015,0.011013261222839299,0.008020599579811105,-0.08963997192382855,-0.0003051790620058115,0.0011362969852555626,0.0015343158738792826,0.0,0.0,0.003917209,0.025741577
0.0,0.0,0.0,0.10289459,-0.022908771,0.9944284,0.9946923,0.0023697668,-0.102867305,0.0,-0.99973476,-0.023031015,-0.0440533769607544,0.008020599579811105,-0.003448712158203193,-0.0005239200514995544,0.0011707184982283404,0.0015094007337188703,0.0,0.0,0.003917209,0.025741577
0.0,0.0,0.0,0.10289459,-0.022908771,0.9944284,0.9946923,0.0023697668,-0.102867305,0.0,-0.99973476,-0.023031015,-0.09433161182403571,0.019991607880592344,-0.04415014038085907,-0.000992958510362235,0.0012648229451401602,0.0012811030281459806,0.0,0.0,0.003917209,0.025802612
0.0,0.0,0.0,0.10289459,-0.022908771,0.9944284,0.9946923,0.0023697668,-0.102867305,0.0,-0.99973476,-0.023031015,-0.06081278858184824,-0.03746923196315763,0.05401212768554586,-0.001292057660719665,0.0010711526705986713,0.0015447581514329801,0.0,0.0,0.003917209,0.02583313
0.0,0.0,0.0,0.10289459,-0.022908771,0.9944284,0.9946923,0.0023697668,-0.102867305,0.0,-0.99973476,-0.023031015,0.003830656242370556,0.03196261618137361,-0.04654434204101676,-0.0012664440912042141,0.001225609988152546,0.0013043126504707315,0.0,0.0,0.003917209,0.025878906
0.0,0.0,0.0,0.10289459,-0.022908771,0.9944284,0.9946923,0.0023697668,-0.102867305,0.0,-0.99973476,-0.023031015,0.013407462882995547,-0.0159214170217514,0.049223724365234034,-0.0011930745563332153,0.0011398748531030263,0.0015439097090445481,0.0,0.0,0.003917209,0.025924683
0.0,0.0,0.0,0.10289459,-0.022908771,0.9944284,0.9946923,0.0023697668,-0.102867305,0.0,-0.99973476,-0.023031015,0.027772672843933033,0.024780011200904867,-0.06809215698242177,-0.001048245819331884,0.0012580755348420355,0.0011957293755872167,0.0,0.0,0.003917209,0.025802612
0.0,0.0,0.0,0.10289459,-0.022908771,0.9944284,0.9946923,0.0023697668,-0.102867305,0.0,-0.99973476,-0.023031015,0.011013261222839299,0.024780011200904867,-0.06330375366210994,-0.000987938284121028,0.0013756852131723495,0.000873231960398731,0.0,0.0,0.003917209,0.025909424
0.0,0.0,0.0,0.10289459,-0.022908771,0.9944284,0.9946923,0.0023697668,-0.102867305,0.0,-0.99973476,-0.023031015,-0.003351948738098187,-0.04225763528347015,-0.03457333374023541,-0.000999758336390914,0.001157518610689137,0.0006959991318955602,0.0,0.0,0.003917209,0.02583313
0.0,0.0,0.0,0.10289459,-0.022908771,0.9944284,0.9946923,0.0023697668,-0.102867305,0.0,-0.99973476,-0.023031015,-0.046447578620910646,0.008020599579811105,0.03485851440429677,-0.0012269974378135125,0.0011918340155347468,0.0008668117082575662,0.0,0.0,0.003917209,0.026153564
0.0,0.0,0.0,0.10289459,-0.022908771,0.9944284,0.9946923,0.0023697668,-0.102867305,0.0,-0.99973476,-0.023031015,-0.017717158699035673,-0.003950408720970133,0.010916497802734071,-0.0013094482441196233,0.0011661228018522223,0.0009170601387299487,0.0,0.0,0.003917209,0.025817871
0.0,0.0,0.0,0.10289459,-0.022908771,0.9944284,0.9946923,0.0023697668,-0.102867305,0.0,-0.99973476,-0.023031015,-0.0440533769607544,-0.008738812041282629,0.0635889343261713,-0.001523167887702797,0.0011165981276365481,0.0012304195096671554,0.0,0.0,0.003917209,0.025772095
0.0,0.0,0.0,0.10289459,-0.022908771,0.9944284,0.9946923,0.0023697668,-0.102867305,0.0,-0.99973476,-0.023031015,-0.02250556201934817,-0.04225763528347015,0.05401212768554586,-0.001628079858361024,0.0008997269605810147,0.0014943280505465488,0.0,0.0,0.003917209,0.02571106
0.0,0.0,0.0,0.10289459,-0.022908771,0.9944284,0.9946923,0.0023697668,-0.102867305,0.0,-0.99973476,-0.023031015,-0.03208236865997316,0.04393362448215485,0.02767590942382725,-0.0017803513023690845,0.0011148964481888838,0.0016252359574129524,0.0,0.0,0.003917209,0.025756836
0.0,0.0,0.0,0.10289459,-0.022908771,0.9944284,0.9946923,0.0023697668,-0.102867305,0.0,-0.99973476,-0.023031015,-0.015322957038879426,0.05829883444309236,0.0635889343261713,-0.0018480643310516361,0.0014008161381634013,0.001935054449256744,0.0,0.0,0.003917209,0.02571106
0.0,0.0,0.0,0.10289459,-0.022908771,0.9944284,0.9946923,0.0023697668,-0.102867305,0.0,-0.99973476,-0.023031015,0.0014364545822143082,0.03914522116184235,0.0037338928222645507,-0.0018316417364853065,0.0015895381632817962,0.0019440486411217831,0.0,0.0,0.003917209,0.02571106
0.0,0.0,0.0,0.10289459,-0.022908771,0.9944284,0.9946923,0.0023697668,-0.102867305,0.0,-0.99973476,-0.023031015,0.015801664543151794,-0.008738812041282629,0.020493304443359506,-0.0017434752050871209,0.001537896412258974,0.0020367949201329717,0.0,0.0,0.003917209,0.02571106
0.0,0.0,0.0,0.10289459,-0.022908771,0.9944284,0.9946923,0.0023697668,-0.102867305,0.0,-0.99973476,-0.023031015,0.018195866203308042,-0.013527215361595152,-0.0010545104980472786,-0.0016437784980451449,0.0014625708533897034,0.0020213383930420704,0.0,0.0,0.003917209,0.02571106
0.0,0.0,0.0,0.10289459,-0.022908771,0.9944284,0.9946923,0.0023697668,-0.102867305,0.0,-0.99973476,-0.023031015,0.011013261222839299,0.03196261618137361,-0.0010545104980472786,-0.0015804932994407225,0.0016150710800296227,0.0020059591485866233,0.0,0.0,0.003917209,0.025756836
0.0,0.0,0.0,0.10289459,-0.022908771,0.9944284,0.9946923,0.0023697668,-0.102867305,0.0,-0.99973476,-0.023031015,-0.003351948738098187,0.017597406220436096,0.02767590942382725,-0.0015893505766340099,0.001694982755731655,0.002134308899962826,0.0,0.0,0.003917209,0.025726318
0.0,0.0,0.0,0.10289459,-0.022908771,0.9944284,0.9946923,0.0023697668,-0.102867305,0.0,-0.99973476,-0.023031015,0.0014364545822143082,-0.03746923196315763,0.030070111083983164,-0.0015742215508397683,0.0014991616821372086,0.002273987910882928,0.0,0.0,0.003917209,0.025756836
0.0,0.0,0.0,0.10289459,-0.022908771,0.9944284,0.9946923,0.0023697668,-0.102867305,0.0,-0.99973476,-0.023031015,0.06368569774627675,0.010414801239967353,-0.05133274536132859,-0.0012479219543541859,0.0015437398799263593,0.0020059542445218705,0.0,0.0,0.003917209,0.02571106
0.0,0.0,0.0,0.10289459,-0.022908771,0.9944284,0.9946923,0.0023697668,-0.102867305,0.0,-0.99973476,-0.023031015,-0.01053455371856693,0.010414801239967353,0.006128094482422242,-0.0012943551131752496,0.0015880951867265642,0.0020265649457113727,0.0,0.0,0.003917209,0.025726318
0.0,0.0,0.0,0.10289459,-0.022908771,0.9944284,0.9946923,0.0023697668,-0.102867305,0.0,-0.99973476,-0.023031015,0.11396393260955806,0.024780011200904867,-0.03696753540039133,-0.0007180636745615829,0.0017040547667974556,0.001831594443980859,0.0029301334,0.0,0.003917209,0.02571106
0.0,0.0,0.0,0.10289459,-0.022908771,0.9944284,0.9946923,0.0023697668,-0.102867305,0.0,-0.99973476,-0.023031015,0.046926286125183014,0.015203204560279848,0.018099102783201815,-0.00047984192556286,0.0017715505157648674,0.0019129319856769638,0.0029301334,0.0,0.003917209,0.02571106
0.0,0.0,0.0,0.10289459,-0.022908771,0.9944284,0.9946923,0.0023697668,-0.102867305,0.0,-0.99973476,-0.023031015,-0.03447657032012941,0.0008379945993423621,0.018099102783201815,-0.0006498255675356928,0.001766882736182755,0.001993862839664588,0.0029301334,0.0,0.003917209,0.025756836
0.0,0.0,0.0,0.10289459,-0.022908771,0.9944284,0.9946923,0.0023697668,-0.102867305,0.0,-0.99973476,-0.023031015,0.008619059562683051,-0.003950408720970133,0.010916497802734071,-0.0006034811418845991,0.0017382962788969904,0.0020384760144799355,0.0029301334,0.0,0.003917209,0.025741577
0.0,0.0,0.0,0.10289459,-0.022908771,0.9944284,0.9946923,0.0023697668,-0.102867305,0.0,-0.99973476,-0.023031015,0.011013261222839299,0.02238580954074862,-0.02020812377929815,-0.0005453974300609796,0.0018415338452062485,0.001927243015511045,0.0029301334,0.0,0.003917209,0.025772095
0.0,0.0,0.0,0.10289459,-0.022908771,0.9944284,0.9946923,0.0023697668,-0.102867305,0.0,-0.99973476,-0.023031015,-0.008140352058410683,-0.020709820342063895,-0.02020812377929815,-0.000583372203202728,0.0017287770742698979,0.001816566181536999,0.0029301334,0.0,0.003917209,0.025772095
0.0,0.0,0.0,0.10289459,-0.022908771,0.9944284,0.9946923,0.0023697668,-0.102867305,0.0,-0.99973476,-0.023031015,-0.0440533769607544,-0.05422864358425139,0.001339691162108636,-0.0008007222269904864,0.0014489899709772913,0.0018141818064398572,0.0029301334,0.0,0.003917209,0.025741577
0.0,0.0,0.0,0.10289459,-0.022908771,0.9944284,0.9946923,0.0023697668,-0.102867305,0.0,-0.99973476,-0.023031015,0.025378471183776785,0.0008379945993423621,0.04682952270507812,-0.00066982625993665,0.0014459349941191167,0.0020392585109330484,0.0029301334,0.0,0.003917209,0.02571106
0.0,0.0,0.0,0.10289459,-0.022908771,0.9944284,0.9946923,0.0023697668,-0.102867305,0.0,-0.99973476,-0.023031015,-0.0009577470779419395,-0.03268082864284513,-0.029784930419921807,-0.0006712658640266764,0.0012753011759342955,0.001880137566278774,0.0029301334,0.0,0.003917209,0.025741577
0.0,0.0,0.0,0.10289459,-0.022908771,0.9944284,0.9946923,0.0023697668,-0.102867305,0.0,-0.99973476,-0.023031015,-0.015322957038879426,0.03435681784152986,0.018099102783201815,-0.0007445243199009401,0.0014407087592622732,0.001961232392363389,0.0029301334,0.0,0.003917209,0.02571106
0.0,0.0,0.0,0.10289459,-0.022908771,0.9944284,0.9946923,0.0023697668,-0.102867305,0.0,-0.99973476,-0.023031015,0.034955277824401776,-0.011133013701438904,-0.05612114868164042,-0.0005660253091794266,0.0013778401469587672,0.0016708204869933698,0.0029301334,0.0,0.003917209,0.025970459
0.0,0.0,0.0,0.10289459,-0.022908771,0.9944284,0.9946923,0.0023697668,-0.102867305,0.0,-0.99973476,-0.023031015,0.034955277824401776,-0.013527215361595152,0.0157049011230459,-0.00038841879351152056,0.0013033148694159976,0.0017409908901736325,0.0029301334,0.0,0.003917209,0.025802612
0.0,0.0,0.0,0.10289459,-0.022908771,0.9944284,0.9946923,0.0023697668,-0.102867305,0.0,-0.99973476,-0.023031015,-0.003351948738098187,0.05351043112277987,-0.10879358520507942,-0.00040323644323445393,0.001564350450682817,0.0011883180096973673,0.0029301334,0.0,0.0011200105,0.02571106
0.0,0.0,0.0,0.10289459,-0.022908771,0.9944284,0.9946923,0.0023697668,-0.102867305,0.0,-0.99973476,-0.023031015,0.011013261222839299,0.0056263979196548575,-0.024996527099609978,-0.0003461539549040852,0.001584660688027677,0.0010573937841508306,0.0029301334,0.0,0.0011200105,0.025741577
0.0,0.0,0.0,0.10289459,-0.022908771,0.9944284,0.9946923,0.0023697668,-0.102867305,0.0,-0.99973476,-0.023031015,-0.003351948738098187,-0.05183444192409514,-0.08485156860351672,-0.00036118292882005574,0.001317565174967063,0.0006278489722124929,0.0029301334,0.0,0.0011200105,0.0256958
0.0,0.0,0.0,0.10289459,-0.022908771,0.9944284,0.9946923,0.0023697668,-0.102867305,0.0,-0.99973476,-0.023031015,-0.027293965339660664,0.0128090029001236,0.013310699462889986,-0.0004958468408742588,0.0013750223635928456,0.0006912632246658803,0.0029301334,0.0,0.0011200105,0.02571106
0.0,0.0,0.0,0.10289459,-0.022908771,0.9944284,0.9946923,0.0023697668,-0.102867305,0.0,-0.99973476,-0.023031015,0.011013261222839299,0.036751019501686105,-0.022602325439454063,-0.000438301300555691,0.0015519023492833117,0.0005747952813452805,0.0029301334,0.0,0.0011200105,0.02571106
0.0,0.0,0.0,0.10289459,-0.022908771,0.9944284,0.9946923,0.0023697668,-0.102867305,0.0,-0.99973476,-0.023031015,0.015801664543151794,0.055904632782936114,0.02767590942382725,-0.00035710147133715363,0.0018236660014515757,0.0007103008520576903,0.0029301334,0.0,0.0011200105,0.0256958
0.0,0.0,0.0,0.10289459,-0.022908771,0.9944284,0.9946923,0.0023697668,-0.102867305,0.0,-0.99973476,-0.023031015,-0.0009577470779419395,-0.023104022002220143,0.018099102783201815,-0.0003601046993701776,0.001699027561433217,0.0007972448617134109,0.0029301334,0.0,0.0011200105,0.025726318
0.0,0.0,0.0,0.10289459,-0.022908771,0.9944284,0.9946923,0.0023697668,-0.102867305,0.0,-0.99973476,-0.023031015,-0.02250556201934817,0.015203204560279848,-0.022602325439454063,-0.00047083198597006753,0.00176654844642745,0.0006802470102075735,0.0029301334,0.0,0.0011200105,0.0256958
0.0,0.0,0.0,0.10289459,-0.022908771,0.9944284,0.9946923,0.0023697668,-0.102867305,0.0,-0.99973476,-0.023031015,-0.027293965339660664,-0.0159214170217514,-0.008237115478516799,-0.0006049476527385206,0.0016781086190865557,0.0006356601977639517,0.0029301334,0.0,0.0011200105,0.025741577
0.0,0.0,0.0,0.10289459,-0.022908771,0.9944284,0.9946923,0.0023697668,-0.102867305,0.0,-0.99973476,-0.023031015,0.03256107616424553,-0.013527215361595152,0.013310699462889986,-0.0004391175336536003,0.001602081999183147,0.0006990353940895819,0.0029301334,0.0,0.0011200105,0.0256958
0.0,0.0,0.0,0.10289459,-0.022908771,0.9944284,0.9946923,0.0023697668,-0.102867305,0.0,-0.99973476,-0.023031015,0.046926286125183014,0.029568414521217362,0.07316574096679673,-0.0002022905153594172,0.001741913661793318,0.0010613689219531176,0.0029301334,0.0,0.0011200105,0.025726318
0.0,0.0,0.0,0.10289459,-0.022908771,0.9944284,0.9946923,0.0023697668,-0.102867305,0.0,-0.99973476,-0.023031015,-0.036870771980285655,0.0128090029001236,0.001339691162108636,-0.0003856329226840484,0.0017972491079849692,0.0010627605331538952,0.0029301334,0.0,0.0011200105,0.025665283
0.0,0.0,0.0,0.10289459,-0.022908771,0.9944284,0.9946923,0.0023697668,-0.102867305,0.0,-0.99973476,-0.023031015,-0.03447657032012941,0.04393362448215485,0.020493304443359506,-0.0005560876096712753,0.0020079309848558186,0.0011599132527049232,0.0029301334,0.0,0.0011200105,0.025680542
0.0,0.0,0.0,0.10289459,-0.022908771,0.9944284,0.9946923,0.0023697668,-0.102867305,0.0,-0.99973476,-0.023031015,-0.029688166999816912,-0.02549822366237639,0.049223724365234034,-0.0007017480066220035,0.0018704002116196575,0.0014002323082675688,0.0029301334,0.0,0.0011200105,0.0256958
0.0,0.0,0.0,0.10289459,-0.022908771,0.9944284,0.9946923,0.0023697668,-0.102867305,0.0,-0.99973476,-0.023031015,0.008619059562683051,-0.02549822366237639,-0.03457333374023541,-0.0006551439687754782,0.0017335570922496772,0.0012203644780250538,0.0029301334,0.0,0.0011200105,0.025726318
0.0,0.0,0.0,0.10289459,-0.022908771,0.9944284,0.9946923,0.0023697668,-0.102867305,0.0,-0.99973476,-0.023031015,0.056503092765808005,0.027174212861061114,0.02288750610351542,-0.0003693527851025608,0.0018607603710937344,0.0013287001861525057,0.0029301334,0.0,0.0011200105,0.025726318
0.0,0.0,0.0,0.10289459,-0.022908771,0.9944284,0.9946923,0.0023697668,-0.102867305,0.0,-0.99973476,-0.023031015,0.05410889110565176,-0.03507503030300138,0.0037338928222645507,-9.696156564878921e-05,0.0016760814177232588,0.0013407261493330659,0.0029301334,0.0,0.0011200105,0.02571106
0.0,0.0,-0.15098432,0.10298269,-0.022509404,0.9944284,0.99467564,0.00622882,-0.102867305,0.0038786337,-0.99972725,-0.023031015,0.029436240768432542,0.11484195876121521,-0.017813922119140457,5.070444602161745e-05,0.0022419108044407186,0.0012449529079906984,0.0029301334,0.002950956,0.0011200105,0.0256958
0.0,0.0,-0.093828104,0.1030366,-0.022261344,0.9944284,0.99465775,0.008624105,-0.102867305,0.0062860907,-0.99971503,-0.023031015,-0.011712222290039098,0.0074399655103683515,0.05640632934570178,-8.110187658686132e-06,0.002267901077970357,0.0015207597901792538,0.0029301334,0.002950956,0.0011200105,0.025665283
-0.020449657,0.0,-0.14738706,0.10312106,-0.022393344,0.99441665,0.9946178,0.012440551,-0.10286176,0.010067675,-0.9996719,-0.023555702,-0.07466193923950204,0.025294031333923356,0.02777223052978428,-0.00038137933291790293,0.002383031729250122,0.001652017143877279,0.0029301334,0.002950956,0.0011200105,0.025665283
0.0,-0.03757787,-0.08423545,0.10413064,-0.02216878,0.99431646,0.9944887,0.014595821,-0.10382325,0.0122112315,-0.99964774,-0.023566471,0.08216560888290403,0.2317272882461548,-0.028857958984374932,3.1355608161206725e-05,0.0035297530118346453,0.001499467263236018,0.0029301334,0.008912446,0.0011200105,0.025726318
0.0,0.0,-0.04719717,0.1041577,-0.022041276,0.99431646,0.9944701,0.015813354,-0.10382325,0.0134350825,-0.99963206,-0.023566471,0.03166296253204337,0.0942004221200943,0.03339128417968773,0.00018951364278061754,0.003983106357375943,0.0016589263478182766,0.0029301334,0.008912446,0.0011200105,0.025939941
-0.030442,-0.02332213,-0.020017996,0.10476616,-0.022766588,0.9942362,0.9943993,0.016407369,-0.10440764,0.013935793,-0.99960613,-0.02435801,-0.04042051515579226,0.009235687255859382,0.04124050750732344,-1.3536501212246864e-05,0.00400936926186836,0.0018568342536158023,0.0029301334,0.008912446,0.0011200105,0.025741577
-0.03350632,-0.02558706,0.0,0.10541905,-0.023621542,0.9941472,0.9943305,0.01649743,-0.10504649,0.013919513,-0.99958485,-0.025226759,0.06908679780960081,-0.23985382847785947,-0.060972973632813066,0.00033196517034181843,0.00279005327316972,0.001542685214183658,0.0029301334,0.0027565295,0.0011200105,0.025665283
-0.06121842,-0.038110796,-0.0451987,0.10642081,-0.025062265,0.99400514,0.99420726,0.01781818,-0.105993174,0.015054934,-0.9995271,-0.026813306,-0.37975376462936405,-0.024398936319351194,0.29215341186523425,-0.001568463478656711,0.0026541083252071157,0.002995738847438911,-0.0068279435,0.0027565295,0.008627126,0.0256958
-0.14542055,-0.052633002,-0.039070062,0.10779033,-0.02866431,0.9937602,0.99404466,0.019213011,-0.10726698,0.016018393,-0.99940443,-0.030564575,-0.21872855253219603,0.47234174687862396,-0.06734066619873147,-0.0026542639239244075,0.0050025465179742,0.002644056822208059,-0.012441673,0.014879314,0.008627126,0.025665283
-0.07147722,0.041827947,-0.045465164,0.10675729,-0.03036324,0.99382126,0.994136,0.020569565,-0.10616263,0.017219031,-0.99932724,-0.032381136,0.07474830141067501,-0.15042686171531677,0.140449430847168,-0.0022672510972514106,0.004225399476807745,0.0033330836923328587,-0.012441673,0.011016271,0.012233944,0.025680542
-0.07427508,-0.087672815,-0.028278332,0.10902127,-0.032183483,0.9935182,0.9938788,0.021497669,-0.10836443,0.01787078,-0.99925077,-0.034330178,-0.6120088884353638,-0.12575497016906734,0.8348866424560537,-0.005315959283941973,0.003575497628578369,0.0074908514861514635,-0.028186409,0.0077810585,0.033712503,0.025726318
-0.18459055,-0.2163742,-0.06158614,0.114730045,-0.03682474,0.9927138,0.9932096,0.023647003,-0.11391013,0.01928,-0.999042,-0.039287705,-0.6880815491676331,0.16173143362998962,0.4656679336547853,-0.008729787233360427,0.0043662773085854254,0.009781736896994632,-0.046287186,0.012035591,0.045962434,0.026306152
-0.09346038,-0.14989181,0.0,0.118799895,-0.03936237,0.99213755,0.99273425,0.0239434,-0.11792138,0.019113485,-0.99893814,-0.041920844,-0.34354857854843146,0.27136120896339416,-0.15683499298095782,-0.010403881189935783,0.005701251966859469,0.008948653247604871,-0.055686336,0.019459764,0.041671585,0.027359009
0.036040388,-0.03411386,0.08110452,0.11964304,-0.03864549,0.9920644,0.99267405,0.021613553,-0.11887459,0.016848072,-0.99901927,-0.040948283,-0.16139868946075442,-0.03864742875099181,-0.17538111572265613,-0.011158855231289877,0.005479508563270213,0.008027004402753566,-0.060121745,0.019459764,0.036851924,0.02748108
0.06375249,0.07393668,0.13079977,0.1174952,-0.037336245,0.9923712,0.9929838,0.017846644,-0.11689626,0.013346029,-0.9991434,-0.039171178,-0.28245061054229736,-0.10457147021293639,-0.11567722930908175,-0.012515314007844914,0.004929253669389179,0.007408483234194389,-0.06786656,0.01659241,0.033680048,0.027420044
0.0,0.14601476,0.05685643,0.11344477,-0.037517067,0.9928356,0.99347264,0.016291294,-0.11290192,0.011938829,-0.9991632,-0.039120335,-0.3326578883171082,-0.3353094975948333,0.03848914337158149,-0.01411602687939123,0.0032280599130680666,0.007563886534881325,-0.077028655,0.007357277,0.033680048,0.027542114
0.108651415,0.31188768,-0.04413285,0.10486117,-0.034377284,0.9938924,0.9943954,0.01718422,-0.10431983,0.013493035,-0.9992612,-0.035986565,-0.1848605881690979,-0.21530106816291805,-0.08280164794921951,-0.014969749685839764,0.002135414272688136,0.007112058862460821,-0.08217652,0.0013617257,0.033680048,0.02784729
0.22256412,0.39635628,-0.10528599,0.09397488,-0.027921572,0.9951828,0.9954331,0.01948846,-0.09345171,0.016785266,-0.99942017,-0.02962548,-0.27175270671844487,-0.1826463278055191,0.4140669708251945,-0.01625366447100279,0.0012115055622970998,0.00914683342227449,-0.0897441,-0.0037244796,0.04521069,0.02784729
0.1073191,0.20850022,-0.044532545,0.08824017,-0.024840267,0.9957893,0.99593323,0.020450361,-0.08774276,0.018184701,-0.9994823,-0.026543789,-0.5258648215293884,0.04319193296432497,0.10257947998046824,-0.01880172025629472,0.001421407699307239,0.009613996655065458,-0.10435591,-0.0037244796,0.048060987,0.027786255
-0.08986314,0.11270697,-0.023482008,0.08514002,-0.027269084,0.9959956,0.9961893,0.02131493,-0.08457298,0.018923353,-0.9994009,-0.02897992,-0.28707166194915773,-0.20960515670776364,-0.2630500640869142,-0.020143069964759036,0.0003662748772718847,0.00825067635135556,-0.11232817,-0.009545424,0.040755823,0.027770996
0.0,0.14814647,-0.027212482,0.08103977,-0.027205946,0.9963393,0.99651414,0.022072032,-0.08045127,0.019802485,-0.9993862,-0.028899819,-0.025619604110717842,-0.028169427537918068,-0.2898426132202152,-0.02017045263548883,0.0002235963651959349,0.006760209903497707,-0.11232817,-0.009545424,0.03266238,0.027923584
0.024715733,0.13189226,-0.07837328,0.07744218,-0.026348088,0.99664843,0.9967522,0.024190735,-0.076810695,0.022085847,-0.99936014,-0.028135894,-0.2687240844726563,-0.21006026110649106,-0.17030085144043028,-0.021413220794674667,-0.0008278229221625,0.005874904596778067,-0.119803205,-0.015388623,0.02792516,0.027816772
0.0,0.05768247,-0.15804556,0.075962074,-0.026011804,0.99677116,0.9967582,0.028560791,-0.07521574,0.026512083,-0.99925363,-0.028097011,-0.08406724004745492,0.050513139390945455,0.10401476898193351,-0.021726490890938567,-0.0005711181105969602,0.006365603918703845,-0.119803205,-0.015388623,0.03081058,0.027740479
0.0,-0.02572029,-0.17176837,0.07679632,-0.02564786,0.9967167,0.9965569,0.03330983,-0.075926855,0.031253107,-0.999116,-0.02811762,-0.24421445741653447,0.11932104840278626,-0.25227019042968735,-0.022838930723566547,2.8342721969955927e-05,0.005072424946961889,-0.12657782,-0.0120786,0.023812484,0.027740479
0.04763151,0.040895328,-0.116477415,0.075742394,-0.024079196,0.9968364,0.99652964,0.036440503,-0.07483882,0.03452317,-0.9990457,-0.026755719,0.23378913545608515,0.24757017302513123,-0.5812685928344727,-0.02155579039266829,0.0012660518734857623,0.002140719858054716,-0.120071,-0.0051882192,0.0076345983,0.027832031
0.082937784,0.06088002,-0.13233194,0.07414241,-0.021510411,0.9970154,0.9965145,0.039928358,-0.07324369,0.038233694,-0.99897105,-0.024395816,0.14410699443817132,0.04670242297649385,0.10198821105957023,-0.02072747646851409,0.001493233729000803,0.0026399573140622936,-0.11607341,-0.0051882192,0.0104638,0.027740479
0.12623794,-0.050101608,-0.27009302,0.0756766,-0.017451005,0.9969795,0.9960847,0.04714597,-0.07478342,0.04569853,-0.9987356,-0.02095052,0.1960275894165039,-0.10667188656330107,0.10946931610107313,-0.019643701139089,0.0009524081275392935,0.0031741041079973477,-0.11062653,-0.008152232,0.013505543,0.027786255
0.13436505,-0.04304035,-0.25104097,0.0769751,-0.013198703,0.99694544,0.99564254,0.053807274,-0.07616212,0.05263769,-0.99846417,-0.017283004,0.3911605782508849,0.24113649797439574,-0.48401040802002004,-0.017589679742139132,0.002153328576773576,0.0007381815473572607,-0.09976362,-0.0014556309,6.40915e-05,0.027770996
0.06921497,0.0,-0.24158156,0.077056915,-0.010717528,0.99696887,0.99525166,0.060468476,-0.076274134,0.05946773,-0.9981126,-0.015326144,0.5030095766067504,0.18225316689014434,-0.4506861343383797,-0.014986683460394683,0.0030538277683404298,-0.0015189400320714242,-0.085518226,0.0037058357,-0.012699481,0.028320312
0.02964529,0.0,-0.20027986,0.07711317,-0.00946524,0.9969772,0.99489933,0.06595231,-0.07632629,0.065030515,-0.99777794,-0.014502744,0.5360619338989256,-0.04361007859706878,-0.043740516662598594,-0.012231440373598081,0.0028205082365133837,-0.0017300479152240601,-0.070598535,0.0037058357,-0.012699481,0.027832031
0.0,-0.14802657,-0.21107158,0.08126509,-0.009001054,0.99665165,0.99417347,0.07178202,-0.08041473,0.07081787,-0.9973798,-0.014781973,0.5495144499778746,-0.3060333046674728,0.39709728546142564,-0.009422710921840717,0.0012762391719934529,0.00026408875165918845,-0.055337973,-0.004793014,-0.001671694,0.027770996
0.0,-0.29791173,-0.23518646,0.089605995,-0.008440269,0.9959413,0.992978,0.0783037,-0.08867577,0.077237464,-0.9968939,-0.015397472,0.5641412118911742,0.12506087918281555,-0.07345799865722746,-0.006554891307775643,0.0018951623720475635,-0.00010452168538524481,-0.039593738,-0.0013027742,-0.001671694,0.027908325
0.0,-0.28219044,-0.20161217,0.09745831,-0.007916286,0.9952079,0.9917978,0.08386323,-0.096457265,0.082697794,-0.9964459,-0.016024513,1.0305356676101685,0.08480251176357269,-0.206239160156251,-0.0013694385131859223,0.002309699119005189,-0.0011351948777395737,-0.010959011,-0.0013027742,-0.007402308,0.027786255
0.1294355,-0.14962535,-0.16270867,0.10162184,-0.0038876208,0.9948153,0.99099916,0.08799059,-0.10088813,0.087142184,-0.9961138,-0.012794381,0.9457298329353332,0.08730625410079956,-0.16946449279785192,0.0033660578440566735,0.0027346818939141607,-0.0019768413673401353,0.015319279,-0.0013027742,-0.012111091,0.027786255
0.14462385,-0.08314296,-0.09142994,0.10392557,0.00037310086,0.9945848,0.9905366,0.09009805,-0.10353634,0.089648806,-0.9959329,-0.008993908,0.8859238047599791,-0.20660122590698302,0.423815434265137,0.0077788465786362854,0.0016880023549096749,0.00015212001082225016,0.0399493,-0.007046601,-0.00032838047,0.027801514
0.0,-0.13856715,-0.06358461,0.10775339,0.0005600966,0.9941773,0.98996985,0.09184762,-0.10734909,0.09137297,-0.99577296,-0.0093424,0.9691017791748047,-0.06449986150488257,0.24044657287597637,0.012585461241617128,0.0013570630356107137,0.0013535922751480207,0.06687701,-0.007046601,0.006352729,0.027786255
-0.073075995,-0.07301738,-0.04106853,0.10977179,-0.0013352949,0.99395573,0.98964447,0.093197696,-0.10917042,0.09248863,-0.9956468,-0.0115519315,1.2636095206260678,-0.10145402188152074,-0.0881164794921876,0.018840581538539382,0.0008430076110250564,0.0009062419163113427,0.10200726,-0.009867176,0.006352729,0.027801514
0.0,0.034500226,0.0,0.108818375,-0.0013352949,0.9940606,0.9897487,0.093197696,-0.10822114,0.092499666,-0.9956468,-0.011463215,1.1685654649734496,-0.015262762115895747,-0.2110895614624031,0.024589205955713934,0.0007624787623904524,-0.00015373710058222965,0.13449515,-0.009867176,0.00048411984,0.027801514
0.065484494,0.061146483,0.0,0.10711258,0.0004915197,0.9942466,0.9899331,0.09300023,-0.10669382,0.09251763,-0.995666,-0.00947491,1.0821549655914307,-0.16209342908263205,0.24465991058349523,0.029877034753892518,-5.180077683466014e-05,0.0010703311378381577,0.16486141,-0.014415666,0.0073495004,0.028060913
0.04976321,-0.10779073,0.026479706,0.11015295,0.0018131573,0.9939128,0.9896715,0.09210393,-0.1098509,0.09174247,-0.9957478,-0.008351076,0.9180777297019957,0.02087670738250017,0.4293867996215823,0.03431803822863304,5.284176396201402e-05,0.0032119134802568784,0.19090368,-0.014415666,0.019529525,0.028366089
0.0,-0.27766058,0.08909839,0.11797355,0.0015251824,0.9930154,0.989006,0.08960615,-0.117634825,0.08915972,-0.99597615,-0.009062728,0.8292803759574889,0.1836763643875718,-0.01567483978271511,0.03829284991727732,0.0009709593770800629,0.003117479713942018,0.21440181,-0.009211091,0.019529525,0.028335571
0.0,-0.38624403,0.10481968,0.12885019,0.0011582276,0.9916632,0.98791987,0.08666704,-0.128465,0.08609332,-0.9962367,-0.010022816,0.9976553403854367,0.1651716655164957,-0.1409310317993171,0.043089662369618115,0.001791962907777141,0.0023972371563757222,0.2427014,-0.004525817,0.015531863,0.028366089
-0.03137462,-0.4130235,0.15424848,0.1403741,-0.000301596,0.9900983,0.98672706,0.082497954,-0.13987096,0.08163892,-0.9965912,-0.011878159,0.9978570148468018,0.3281125286441296,-0.26681712799072344,0.047863499132004036,0.0034235657364589034,0.0010511653306402265,0.27079353,0.0047113597,0.008020303,0.028152466
-0.03936849,-0.40716133,0.18116117,0.15157282,-0.002120627,0.9884436,0.9854837,0.07768771,-0.15095222,0.07646983,-0.99697554,-0.013865183,0.9265349519729611,-0.27211227023005485,0.04857470092773397,0.05225685639620882,0.0020458865566263342,0.0012887830086256952,0.29656672,-0.0028579254,0.008020303,0.027816772
-0.03244047,-0.2811246,0.17276761,0.1592837,-0.0037590358,0.9872255,0.9846357,0.073093235,-0.1585875,0.07156339,-0.9973181,-0.015343837,1.0158184455871582,-0.023893362399935718,-0.5518444503784181,0.057074664342163565,0.0019161903118435238,-0.001476883158309524,0.32482353,-0.0028579254,-0.007330228,0.027816772
0.0,-0.0760817,0.19608307,0.16134977,-0.0046334746,0.9868862,0.9846819,0.06772247,-0.1606714,0.06608993,-0.9976935,-0.0154895,0.4599893592834472,0.48135220879316326,-0.6064919509887696,0.059089237816869984,0.0043133704042501225,-0.004501958497461825,0.33761895,0.010531739,-0.024200877,0.027816772
0.045233347,0.053285837,0.24377987,0.15985669,-0.004480736,0.98712987,0.9853546,0.060845286,-0.159293,0.05934847,-0.9981372,-0.014141635,0.5082841762542722,0.15926253920197486,-0.1943158996582035,0.061335212509057,0.0050881162482387466,-0.005451028203265533,0.35175002,0.014959479,-0.029603153,0.027801514
0.056557998,0.027572205,0.17423314,0.15907928,-0.0037000666,0.9872587,0.98575944,0.055815805,-0.15862851,0.054517724,-0.99843425,-0.012526508,0.16996609477996816,-0.3068981827437878,0.23796648559570244,0.06187836692041155,0.0035281847532786137,-0.0042339406342706935,0.3564805,0.006417879,-0.022980062,0.027832031
0.07161313,0.075668685,0.23645213,0.15698072,-0.0027729776,0.9875976,0.98643565,0.04901952,-0.15665838,0.04797717,-0.998794,-0.010430478,0.24722426204681391,0.18580171569883822,-0.27959734954834037,0.06280509639604356,0.004439552408006412,-0.005610757678841042,0.36335373,0.011583447,-0.030753292,0.027801514
0.052827522,0.13602243,0.2720249,0.15322696,-0.0024952265,0.9881877,0.9873623,0.041332584,-0.15299459,0.040462617,-0.99914235,-0.008796951,-0.08317047080993656,0.42770692314207553,0.026755563354491585,0.06207521856001367,0.006555889261676757,-0.005448926073674379,0.36335373,0.02346782,-0.030753292,0.027786255
0.04030379,0.11337312,0.29160988,0.15009071,-0.002617217,0.98866856,0.98814166,0.033154815,-0.14992292,0.032386765,-0.9994468,-0.007562402,-0.11462270469665525,0.28985487972497936,0.029950856018066574,0.061191728943730324,0.00797238421399327,-0.005271927163215674,0.36016706,0.031526223,-0.030753292,0.027801514
0.08040639,0.0,0.22965735,0.15007785,-0.0013433831,0.9886731,0.9883351,0.026393086,-0.14999065,0.02589266,-0.9996508,-0.005288721,-0.2916870544433594,-0.3910853479772806,0.7170485855102537,0.05942733502679488,0.005977095553036899,-0.0016603245998483263,0.3519153,0.020462498,-0.010468135,0.028289795
0.077741764,-0.04423943,0.20634189,0.15129235,-6.8341615e-05,0.98848885,0.9882839,0.02038476,-0.15125954,0.020139791,-0.9997922,-0.0031515898,-0.31851822052001955,0.14182464754991234,-0.03320294952392544,0.057537607249060804,0.006656333313021276,-0.0018180377244687118,0.34304056,0.024414094,-0.010468135,0.027862549
0.0,0.09538691,0.25310606,0.14866622,-0.0011237207,0.9888866,0.9888005,0.013428557,-0.148638,0.01311231,-0.9999092,-0.0031074984,-0.33744130363464364,-0.057718752709031096,-0.2878919296264657,0.05556271269464228,0.006334457882911014,-0.003248407183978697,0.33365917,0.024414094,-0.018471966,0.027801514
0.08480302,0.24713728,0.16903713,0.14184816,0.000530835,0.9898881,0.9898527,0.008423002,-0.14184758,0.008413145,-0.9999644,-0.0006693278,-0.4245520795822144,-0.2510049279153347,-0.281833222961426,0.053162138733257994,0.005047760953919786,-0.004641331262865933,0.3218236,0.017416626,-0.026328858,0.027877808
0.15967898,0.3056258,0.16863745,0.13344334,0.004282606,0.99104697,0.9910495,0.0031681615,-0.13345735,0.0037113605,-0.9999858,0.003821518,-0.8528457838058472,0.036310864359140396,0.03895738372802704,0.04863209912056247,0.005204076470945889,-0.0044233376879114685,0.2981132,0.017416626,-0.026328858,0.027801514
0.07920731,0.21342978,0.15518108,0.12758563,0.005901873,0.9918098,0.99182737,-0.0013941447,-0.12757957,-0.00062975055,-0.99998164,0.006031527,-1.0317176328659057,-0.010636367535591128,0.37500154571533173,0.043230350460630125,0.005124874250913204,-0.0025262132708952527,0.26944563,0.017416626,-0.01590897,0.027786255
-0.06494889,0.12363193,0.112547085,0.12419649,0.0037202607,0.99225044,0.9922505,-0.0042661964,-0.12418047,-0.003771135,-0.999984,0.0042212917,-0.7929220317840576,-0.03803432115614414,0.11516748809814459,0.03904958854940669,0.004909078273877917,-0.0019377447640500536,0.24743749,0.017416626,-0.012712411,0.027755737
-0.06761351,0.19637617,0.14558843,0.11877873,0.0013587989,0.99291956,0.9928898,-0.00806165,-0.118764095,-0.007843178,-0.9999666,0.0023067046,-0.6474367729187012,-0.11421904403418302,-0.12261950378418085,0.03561715674206615,0.004313437662337612,-0.0025411535591507075,0.22940813,0.014235935,-0.016127031,0.02784729
-0.08013725,0.18731646,0.10308767,0.11360938,-0.001185677,0.99352455,0.9934678,-0.010647836,-0.11361555,-0.010713583,-0.99994266,3.177626e-05,-1.0522835711479186,-0.10987739253789186,0.6576623138427724,0.03017765310261622,0.003742483511336464,0.0007598637778589083,0.20016912,0.011182854,0.0021469414,0.027786255
0.0,0.0,0.084035605,0.113606304,-0.0014508099,0.99352455,0.99344015,-0.012966313,-0.113615535,-0.013047172,-0.99991494,3.177626e-05,-0.9205769690513611,-0.18429312717467544,0.5906246673583979,0.02542387999184633,0.0028023054579064044,0.0037091877957616034,0.17460378,0.0060648504,0.018549176,0.027770996
0.0,-0.053832084,0.086567,0.115104735,-0.0017288992,0.99335164,0.9932328,-0.015381905,-0.11511769,-0.015478654,-0.99988025,5.3344964e-05,-0.3751542393684387,-0.03833486332297325,0.1371606781005852,0.023420989395044906,0.002596619614002006,0.004376445247285721,0.16406515,0.0060648504,0.022402216,0.02809143
-0.02071612,0.0,0.093228556,0.11509899,-0.0026170192,0.9933504,0.99318874,-0.017940834,-0.11512748,-0.018122813,-0.99983567,-0.0005342079,-0.49721095952987676,-0.296726164278388,0.19463105468750008,0.020817829650420297,0.0011000056945400561,0.005327718294486793,0.14996122,-0.0023521103,0.027923137,0.028366089
0.0,0.039563015,0.044465926,0.11398254,-0.0027612592,0.9934787,0.9932937,-0.019191613,-0.11401462,-0.01938127,-0.99981207,-0.00055521843,-0.5693551880836487,-0.26919378137886524,-0.21344657440185522,0.01786696456174995,-0.0002514632408269703,0.004233846831005083,0.1338369,-0.009975762,0.021878263,0.028320312
0.0,0.03476669,0.0,0.113002725,-0.0027612592,0.99359065,0.99340564,-0.019191613,-0.11303498,-0.019380713,-0.99981207,-0.00057433185,-0.8820527265548707,-0.19257932639122008,0.11363017425536981,0.01336736610616685,-0.001213102556578936,0.004780828468126906,0.10881651,-0.015438484,0.025101507,0.028366089
-0.16673756,0.104313396,-0.03214204,0.11008738,-0.007327535,0.9938947,0.9937504,-0.01776782,-0.11020236,-0.018466838,-0.99981534,-0.005325715,-0.9775860927581788,-0.41328547765016554,-0.03733184356689456,0.008412598811845123,-0.003273464432046869,0.004570265107951798,0.081280135,-0.027079796,0.025101507,0.028167725
-0.15541291,0.18638384,-0.04812979,0.10492871,-0.011495136,0.9944131,0.994333,-0.015965654,-0.10510478,-0.017084632,-0.9998065,-0.009754725,-1.1957737936019897,-0.32126318255662917,0.19060750732421816,0.002391666849775948,-0.004863413022669781,0.00550045131903313,0.04790809,-0.036045715,0.030421043,0.027908325
-0.17806222,0.120967306,0.0,0.10158576,-0.016415907,0.99469113,0.9946808,-0.015453701,-0.101839714,-0.017043434,-0.9997459,-0.0147587005,-1.4721146285057067,0.09543391151428224,0.6599592498779288,-0.004980864627001465,-0.00436192639998502,0.008772745311827607,0.007003538,-0.036045715,0.04875884,0.027786255
-0.17086773,0.039429784,0.0,0.10049535,-0.02114115,0.9947127,0.9947919,-0.014972338,-0.10082154,-0.01702464,-0.99966437,-0.019526381,-1.1637968599319457,0.031669166445732116,0.4969742462158191,-0.010774944603526185,-0.004181770935756435,0.011213752816347566,-0.025351776,-0.036045715,0.062575474,0.027801514
-0.11291214,0.0,-0.020817384,0.10050848,-0.024207093,0.9946415,0.9948003,-0.01407954,-0.10086717,-0.016445776,-0.9996078,-0.022666097,-1.2907984456062316,0.12173813478946686,0.31321104278564427,-0.017175062108539713,-0.0035521714071303184,0.012723739266194049,-0.061257623,-0.03265935,0.071288,0.027816772
0.044300728,-0.062358886,-0.048396252,0.10226343,-0.022846486,0.9944948,0.9946422,-0.0128671,-0.102574155,-0.015139704,-0.9996562,-0.021408234,-0.759474073600769,0.19425183992385864,-0.0973747543334973,-0.02088655716600086,-0.0025631513504753736,0.012173246798195592,-0.082360566,-0.027261822,0.071288,0.027786255
0.14409092,0.0,-0.12100727,0.10233301,-0.018518249,0.99457765,0.9946805,-0.00993167,-0.10252849,-0.011776445,-0.9997792,-0.01740339,-0.5852743253707886,0.1152625909805298,-0.16031159667968886,-0.0237084960070248,-0.001974022638820348,0.01131082258080617,-0.098632075,-0.024057347,0.06683109,0.027801514
0.15221803,0.031302683,-0.18922168,0.10155145,-0.013767425,0.9947348,0.9948091,-0.0051253284,-0.10162994,-0.006497505,-0.9998921,-0.0131754605,-0.34894955692291263,0.33922671434879303,-0.6548198577880866,-0.025334701311604237,-0.0002680189538822812,0.007980169178961707,-0.10834405,-0.014615979,0.048606124,0.027832031
0.0,0.072471134,-0.14831969,0.09960509,-0.013353142,0.99493724,0.99502426,-0.0010272595,-0.09962757,-0.0023523783,-0.99991035,-0.013184366,-0.38069265232086186,0.3070606901526451,0.1216172149658199,-0.027111491066650523,0.0012686245916503555,0.008548354407896,-0.118916266,-0.0060885977,0.051983554,0.027770996
-0.21243587,0.055684,-0.12433805,0.09809459,-0.018985027,0.9949958,0.9951764,0.0030670655,-0.09805385,0.0011901848,-0.9998151,-0.0191943,-0.09762141218185427,0.21969000985622406,-0.570792485046387,-0.027464040672226544,0.002360731517973224,0.005651650210624585,-0.118916266,0.00012638762,0.03583595,0.028289795
-0.096125,0.2753823,-0.11354633,0.090529524,-0.021349886,0.99566466,0.9958836,0.0064653335,-0.09041076,0.004507068,-0.9997512,-0.02184729,0.4798680983543395,0.7109592743635177,-0.6409834533691408,-0.02492737997709371,0.005903724232200947,0.0024184746927257577,-0.10556056,0.019913828,0.01799608,0.027832031
0.07694238,0.49228275,-0.07384342,0.07694278,-0.019048018,0.9968533,0.9970121,0.00833123,-0.07679582,0.0068422304,-0.99978393,-0.019632118,0.3794576120376587,0.17472255342006682,-0.09299164428711038,-0.02290545501701995,0.006747818378140276,0.0019414240978265769,-0.09501686,0.024768714,0.01799608,0.027786255
0.33168054,0.41207755,-0.17536563,0.065592185,-0.00950865,0.99780095,0.9977758,0.012535958,-0.06547104,0.011885881,-0.99987626,-0.010309747,0.11924491147994987,-0.052826888084411605,0.322922819519043,-0.0221947031845351,0.0064499448458275165,0.003546331074932659,-0.09170349,0.024768714,0.026968896,0.027786255
0.379777,0.21303008,-0.27755398,0.05969897,0.0015368611,0.99821496,0.9980231,0.019591093,-0.05971762,0.019647937,-0.99980694,0.00036426913,0.3452876495361328,0.18357951242774723,-0.027670602416993262,-0.020357291420931758,0.007335592683737116,0.0033902464074730292,-0.0820829,0.029883707,0.026968896,0.027862549
0.22376321,0.085927494,-0.28914508,0.057281643,0.008199085,0.9983241,0.99797505,0.027228314,-0.0574852,0.027654048,-0.99959564,0.006622815,0.880087628030777,0.11396520098447799,0.06479822540283209,-0.015855066823673214,0.00786874072524082,0.0036972863024498244,-0.057682276,0.033043418,0.026968896,0.02772522
0.121041924,0.020910641,-0.26090008,0.056629937,0.011961424,0.99832326,0.99778587,0.034254488,-0.057009835,0.034879014,-0.9993416,0.009995126,1.0506920745372772,-0.5493047070026398,0.22521736602783093,-0.010522331116868462,0.005082873486601415,0.00480488670107673,-0.028551606,0.017813824,0.033213098,0.02772522
0.13516442,-0.17480606,-0.34736714,0.06133946,0.016277293,0.99798393,0.9971212,0.043653604,-0.061998393,0.044574805,-0.9989142,0.013552764,1.0092423168182372,-0.4486262518405914,0.46026826629638684,-0.005423507877192933,0.002814327859965451,0.0070822035990532805,-0.000523942,0.005355026,0.045995206,0.027770996
0.06948143,-0.35666668,-0.37374693,0.07102311,0.018885052,0.99729556,0.9959537,0.053851455,-0.071947254,0.055064596,-0.9983704,0.014983964,1.1108961858749389,-0.09915087094306946,-0.07990101776123026,0.00015809059156772672,0.0023045018659502764,0.0066472874922518625,0.030275898,0.005355026,0.045995206,0.02772522
-0.073209226,-0.38158095,-0.3949307,0.08137018,0.017695824,0.99652654,0.9944871,0.064905904,-0.08235619,0.06613788,-0.99773455,0.012316896,1.4823815583229063,-0.3023726639747619,-0.30815460662841865,0.00756920793022442,0.0007811160367467151,0.00507327802164851,0.07137525,-0.0030283225,0.03745155,0.02772522
-0.08093664,-0.33508325,-0.351897,0.090484254,0.016294917,0.99576426,0.99299395,0.07482395,-0.09145692,0.07599737,-0.9970637,0.0094104,1.6150950753211974,-0.032181328463554384,-0.31141045989990257,0.015606837267179286,0.0006163038142452097,0.003490859332040755,0.11627734,-0.0030283225,0.028793868,0.027801514
-0.08746497,-0.18799594,-0.34496897,0.095552616,0.014761969,0.9953146,0.9917349,0.08459692,-0.09646361,0.0856246,-0.9963059,0.006556538,1.6137651557922363,-0.5342221099019051,-0.24064394683837875,0.02359762885980457,-0.002057888254335542,0.0022701853011886574,0.16126557,-0.017921263,0.022085242,0.027877808
0.07907408,-0.060093954,-0.32191998,0.09707042,0.017813547,0.9951178,0.99077576,0.09325936,-0.09831626,0.094555475,-0.9954825,0.008596542,1.5341404388427735,-0.06871716575622559,-0.31083825988769576,0.031150342909719415,-0.0023911846418449923,0.0007046430752442351,0.2039404,-0.017921263,0.013438725,0.027816772
0.0650848,-0.02771876,-0.2465111,0.097706705,0.020281542,0.9950083,0.99003786,0.09986833,-0.09925423,0.10138291,-0.99479395,0.010321726,1.5743537096023559,0.40162735517024994,-0.11121067047119126,0.0388663597431826,-0.0003710919427845176,0.00014506650751205767,0.24770983,-0.006755415,0.0103469,0.027801514
0.0,-0.098064855,-0.1948174,0.10030923,0.02081809,0.9947382,0.9892077,0.10523133,-0.10195379,0.10680018,-0.99422985,0.010037778,1.7921913317680356,-0.012230675053596513,0.5302804000854486,0.047632984603306866,-0.0004303898583385776,0.0027957431754017403,0.2975628,-0.006755415,0.025097588,0.027816772
-0.024313362,-0.24488568,-0.17043605,0.10700677,0.020636406,0.9940438,0.98797613,0.110005185,-0.108637266,0.111591935,-0.9937168,0.008617014,1.5977856432914734,-0.10649205524921418,0.12902440338134724,0.055383747896747694,-0.0009606981852929557,0.0034268864764314677,0.34215432,-0.00972743,0.028698443,0.027908325
0.02338342,-0.23968966,-0.06358461,0.11359118,0.021477375,0.99329513,0.9870341,0.11167808,-0.115289874,0.113405496,-0.99351233,0.008513294,1.7419006256103513,0.27678877389430995,-0.07306176757812466,0.06381633228531572,0.0004280491751050588,0.0030444432061586873,0.3905818,-0.0020322828,0.028698443,0.027801514
0.0,-0.1208474,0.0,0.11692592,0.021477375,0.9929081,0.9866414,0.11167808,-0.11860358,0.11343344,-0.99351233,0.008132442,1.6424200471878052,0.2552409589529037,-0.10815892639160118,0.07170935085982817,0.001702113723994052,0.002488426358169888,0.4362185,0.0050599077,0.025693111,0.027786255
-0.08626589,-0.053832084,0.06964663,0.11845339,0.018864032,0.99278015,0.9866777,0.11005085,-0.11981633,0.111516595,-0.99374694,0.0055768574,1.2442864007949828,0.42774783787727355,0.16823570404052646,0.07757223610950395,0.0038323423447604497,0.003317162746581671,0.4708685,0.016971527,0.03037802,0.02784729
-0.15301475,-0.07688109,0.12653637,0.120638154,0.014210314,0.9925946,0.98680204,0.10708629,-0.12146718,0.108019434,-0.9941482,0.0011041067,1.501501567840576,-0.31656332684755323,0.17695658569335926,0.08469188276815931,0.0022303639987988812,0.004185359861315558,0.51270413,0.008151266,0.03530848,0.027862549
0.0,-0.0824768,0.14758691,0.12297369,0.013709975,0.992315,0.9869522,0.10303253,-0.12373257,0.103937164,-0.99458355,0.0008608324,1.5060752935409543,-0.01313887609243393,-0.22773836059570307,0.09179879982202328,0.0021535177983427168,0.0030257412590304657,0.5546213,0.008151266,0.028970059,0.027832031
0.0,0.0,0.2750892,0.12307484,0.012770117,0.992315,0.9877105,0.0954897,-0.12373257,0.09633601,-0.9953486,0.0008608324,1.0240018840789795,0.4064579586744308,-0.565320794677735,0.09645981524330806,0.004175040002723157,0.0001840085793466382,0.58305883,0.019439008,0.013270537,0.027770996
-0.14302239,-0.037178177,0.33624235,0.12419542,0.0076715294,0.9922279,0.98843366,0.08675103,-0.12439118,0.087031126,-0.99620056,-0.0031912506,0.6890977365493773,0.6953427671074867,0.11056600494384661,0.0994230048498384,0.007630878638246975,0.0007359185611691381,0.6022063,0.03875998,0.016342752,0.027786255
-0.20937155,-0.15255643,0.38220713,0.1284558,0.0005391715,0.9917149,0.98876876,0.076959275,-0.128116,0.07639078,-0.9970341,-0.009352719,0.7806594137191771,0.23255467349886894,0.16749278259277212,0.1028291868941851,0.008755497612550085,0.001569702881327153,0.62395746,0.045239545,0.021009527,0.027862549
-0.17859514,-0.0995304,0.40498966,0.13121524,-0.005954728,0.9913358,0.989225,0.066286996,-0.13053763,0.0649354,-0.9977828,-0.014588403,0.4728656433105467,-0.20200926628708837,-0.028081690979004037,0.10467936917626691,0.007701673793051892,0.0014214459120254971,0.6373275,0.039527826,0.021009527,0.028274536
0.0,0.0,0.45788246,0.13112742,-0.007648415,0.9913358,0.9899984,0.053509112,-0.13053763,0.052047133,-0.9985381,-0.014588403,0.06897393150329578,0.1424361254096031,-0.15976278228759888,0.10450084198790206,0.008375346051134647,0.0006155247710273752,0.6373275,0.043544274,0.016504498,0.028198242
0.15181834,0.14201784,0.44802335,0.12705204,-0.0050184876,0.99188316,0.9911132,0.04036582,-0.12674913,0.039402127,-0.9991724,-0.010102417,-0.06482351665496833,-0.18583138796687124,-0.5593455459594727,0.1036542201946877,0.007404312381044617,-0.0021842805826251255,0.6373275,0.038272966,0.00063805276,0.028366089
0.10265601,0.19104694,0.4081872,0.121616215,-0.003566397,0.9925706,0.99218625,0.02850281,-0.12146666,0.027857892,-0.99958736,-0.007004899,-0.618295177268982,-0.15238358525335788,-0.009590872192383415,0.10004447320736935,0.006605372892872606,-0.002221313540673917,0.6197606,0.033943463,0.00063805276,0.028411865
-0.07081106,0.19597648,0.39206624,0.11604131,-0.0068806484,0.9932203,0.99310255,0.017707009,-0.11590482,0.016789496,-0.9998196,-0.008887896,-0.4523530495643616,-0.5869797739148139,-0.06286411895752053,0.0972824855935107,0.0036374471588341726,-0.0025245275677581503,0.606936,0.0173021,0.00063805276,0.02835083
-0.082402185,0.22089073,0.26682886,0.10979226,-0.010037255,0.99390364,0.9939108,0.010497575,-0.10968698,0.009332655,-0.99989456,-0.01112865,-1.128367632293701,-0.48897634015083313,-0.29837325744628984,0.09115423500407464,0.0011743782222858362,-0.004003771217150809,0.57513523,0.0035212876,-0.0077709956,0.028182983
-0.070011675,0.1759918,0.25017497,0.104846075,-0.012720263,0.9944069,0.99448556,0.0037876246,-0.10480586,0.002433313,-0.99991196,-0.013047197,-1.2860681820869446,0.2132268236875534,0.22896623229980406,0.08426812291861956,0.0022346404496121743,-0.002838921199566034,0.53936094,0.009452569,-0.001401894,0.027816772
-0.16540524,0.10697802,0.18715659,0.10181203,-0.017825712,0.9946437,0.9947999,-0.000907502,-0.101844214,-0.0027180575,-0.99984074,-0.017640585,-1.6128548578262327,-0.24242816920280452,0.38741222076416015,0.07578250801489529,0.0010113264013500906,-0.0008876654897474034,0.49457034,0.0027200975,0.009356929,0.027770996
-0.17752929,0.029837137,0.11028216,0.1009243,-0.023045657,0.99462694,0.99487746,-0.00345706,-0.10102975,-0.005766753,-0.9997285,-0.022578666,-1.617463977241516,-0.12731367988586423,0.3995234191894532,0.06731627558861324,0.00036970136991401896,0.0011143899336486,0.4496024,-0.0008194155,0.020464284,0.027801514
-0.2278907,0.0,0.056190275,0.100883305,-0.029497404,0.99446064,0.9948714,-0.0043700607,-0.10105452,-0.007326671,-0.99955535,-0.028905218,-1.2579938029289246,0.1536391103744507,0.051348989868163386,0.06068972519602554,0.0011360484149367024,0.001365562933321174,0.41466665,0.0034472956,0.020464284,0.027770996
-0.052291922,0.111374654,-0.020950615,0.09782292,-0.03088471,0.9947242,0.99518156,-0.0036462152,-0.09798103,-0.0066530667,-0.99951637,-0.030379176,-1.1152985022544861,-0.0024502067089080537,-0.07294207000732555,0.05480978405877299,0.0011181171393174786,0.0009940247686179404,0.38367668,0.0034472956,0.020464284,0.027786255
0.0,0.23341447,-0.05172703,0.09141013,-0.030748641,0.9953382,0.99580073,-0.002214594,-0.09152095,-0.005018386,-0.99952465,-0.030417042,-1.1123962213516236,0.38188785524368285,0.1182907989501949,0.048973754031721,0.0030219658298393055,0.0015805086395258253,0.3527504,0.014064356,0.023752948,0.027801514
-0.12277125,0.16733177,-0.026546327,0.08680797,-0.034077078,0.99564177,0.99621654,-0.0011761514,-0.08689827,-0.0041322364,-0.99941856,-0.033846013,-1.1053556312561035,-0.004706657409667969,0.611372842407226,0.04320210710528188,0.002983322713641769,0.004629470308364326,0.32205355,0.014064356,0.04073138,0.027770996
-0.022181664,-0.05223331,-0.13166577,0.088383295,-0.03437119,0.99549305,0.9960865,0.0025344745,-0.088348396,-0.00051355874,-0.999406,-0.034460645,-0.6204256531715393,-0.37815729598999015,0.01884393157958897,0.03988396830389777,0.001077619620123609,0.004700542614720449,0.30475745,0.0035221593,0.04073138,0.027877808
0.12490563,0.04329349,-0.16337481,0.08732882,-0.030502114,0.99571216,0.99617124,0.006768156,-0.087161675,0.00408055,-0.99951184,-0.030976346,-0.12326391706466677,-0.0798432730197906,-0.7395405426025397,0.03906822887705494,0.0006730151569240381,0.0009793371886341485,0.30131924,0.0035221593,0.020103328,0.027893066
0.084936254,0.17399333,-0.17603177,0.08265614,-0.02773585,0.9961918,0.9965365,0.0114416,-0.0823661,0.009113565,-0.99954987,-0.028585467,-0.13239789781570432,0.23001042008399963,-0.28143739776611376,0.03821089824359114,0.0018197021815594162,-0.00043274648613959106,0.2976404,0.009913287,0.012283237,0.027786255
-0.076140314,0.14974524,-0.095959805,0.07857807,-0.029632956,0.9964672,0.9968369,0.014275193,-0.07818262,0.01190801,-0.99945897,-0.030660903,0.14802383337020875,0.09011980915069581,0.06343779296874885,0.038759962919224226,0.0022612027164050984,-0.00011339378886514881,0.30176246,0.009913287,0.012283237,0.02784729
0.13103427,-0.03304801,-0.20707467,0.079651885,-0.025549553,0.996495,0.99666685,0.01972396,-0.079159826,0.017632362,-0.999479,-0.027035406,0.08884066457748407,-0.0802129319190979,0.886813328552245,0.03901036642751553,0.0018488320432275833,0.004321239822840403,0.30176246,0.009913287,0.03692446,0.027786255
0.052028134,0.0680745,-0.17536563,0.07788684,-0.023724983,0.9966796,0.99670714,0.024467506,-0.07730649,0.022552203,-0.9994191,-0.025552519,0.23037064399719231,-0.19590035364627834,-0.005360336303711577,0.03996716781536391,0.0008600861147800537,0.004272831942207643,0.3081636,0.0044699498,0.03692446,0.027786255
0.02098526,0.07526899,-0.05918798,0.07584284,-0.02301813,0.9968538,0.996825,0.026060576,-0.07523881,0.024246762,-0.9993954,-0.024921516,-0.09744366855621345,0.2722897115707397,0.03868467864990244,0.03928011363350603,0.002217234242059852,0.004444891175746117,0.3081636,0.012027551,0.03692446,0.027755737
0.0,-0.04037573,-0.05385873,0.076995514,-0.022903765,0.9967681,0.9966998,0.027552264,-0.07635707,0.025714388,-0.999358,-0.024949541,0.6639302903175353,-0.20749904956817622,-0.21917765960693458,0.042403364516926174,0.0011686528230086715,0.0033267784218327127,0.32661176,0.00626193,0.030834332,0.027786255
0.0,0.0,-0.08916501,0.0770519,-0.022713352,0.9967681,0.99662864,0.030016141,-0.07635707,0.028184842,-0.99929136,-0.024949541,1.1303320156097412,-0.3263940069675445,-0.001305308532716154,0.047843007772390256,-0.0004691604759440944,0.003303617987059968,0.35795045,-0.0027874156,0.030834332,0.02772522
0.0,-0.021723354,-0.1663059,0.07775729,-0.022355858,0.99672145,0.99643314,0.034618624,-0.076958254,0.032784693,-0.9991506,-0.024967933,0.7366216276168822,0.15187586619853974,-0.12781080474853646,0.051286900871612716,0.0002925646574283247,0.002648045873381986,0.37840715,0.0014303285,0.027284898,0.027770996
0.0,-0.031582467,-0.19388476,0.07877033,-0.021926118,0.9966515,0.9961588,0.040089205,-0.07784937,0.038248066,-0.99895555,-0.0249997,0.840748009777069,-0.14617469971179958,-0.11765416412353602,0.05523420641614,-0.00043977166441781486,0.002046534823397396,0.4022174,-0.0027093848,0.023952896,0.028320312
0.08666826,0.0,-0.15284956,0.078857645,-0.019191187,0.996701,0.99597996,0.044132058,-0.07795079,0.04249053,-0.9988414,-0.022594152,1.060290604496002,0.027469315409660355,-0.19228449554443472,0.06025948840653931,-0.000300226229047424,0.0010748796715582354,0.4316789,-0.0027093848,0.01861003,0.027786255
0.029778522,0.0,-0.09769181,0.07890833,-0.018152347,0.99671644,0.9958566,0.046770956,-0.0779884,0.045201745,-0.99874073,-0.021767717,1.0957831782341003,0.047584763097763064,0.1308039825439451,0.06543710685567712,-6.080128241337153e-05,0.0017235251859201695,0.4621266,-0.0027093848,0.022244584,0.027786255
0.0,0.0,0.0,0.07890833,-0.018152347,0.99671644,0.9958566,0.046770956,-0.0779884,0.045201745,-0.99874073,-0.021767717,0.35358066358566287,-0.03860649666786192,-0.029607528686524276,0.06687782463932705,-0.0002535297593406143,0.0015668699165579472,0.4719513,-0.0027093848,0.022244584,0.027786255
0.0,0.0,0.0,0.07890833,-0.018152347,0.99671644,0.9958566,0.046770956,-0.0779884,0.045201745,-0.99874073,-0.021767717,0.27217780714035034,0.004489133214950564,-0.04397273864746154,0.06790432455183217,-0.00022981644446915846,0.0013391718737378498,0.4795058,-0.0027093848,0.022244584,0.027755737
0.0,0.0,0.0,0.07890833,-0.018152347,0.99671644,0.9958566,0.046770956,-0.0779884,0.045201745,-0.99874073,-0.021767717,0.19795755567550655,-0.11761515145301815,-0.03679013366699202,0.06855459070745054,-0.0008167431195119034,0.0011485253460342005,0.48499423,-0.005970291,0.022244584,0.02772522
0.0,0.0,0.0,0.07890833,-0.018152347,0.99671644,0.9958566,0.046770956,-0.0779884,0.045201745,-0.99874073,-0.021767717,0.1907749506950378,-0.04339489998817442,-0.008059713745117492,0.06916569250738848,-0.001029633903855216,0.001102484150578442,0.49029225,-0.005970291,0.022244584,0.027770996
0.0,0.0,0.0,0.07890833,-0.018152347,0.99671644,0.9958566,0.046770956,-0.0779884,0.045201745,-0.99874073,-0.021767717,0.16204453077316283,-0.04100069832801817,-0.01284811706542932,0.06963008669871734,-0.0012294892259760307,0.001032731144498403,0.49478993,-0.005970291,0.022244584,0.027755737
0.0,0.0,0.0,0.07890833,-0.018152347,0.99671644,0.9958566,0.046770956,-0.0779884,0.045201745,-0.99874073,-0.021767717,0.19316915235519405,-0.06494271492958067,-0.07509736022949198,0.07024778202699972,-0.001548055354494054,0.0006520806876284511,0.5002104,-0.005970291,0.022244584,0.028060913
0.0,0.0,0.0,0.07890833,-0.018152347,0.99671644,0.9958566,0.046770956,-0.0779884,0.045201745,-0.99874073,-0.021767717,0.31287923536300655,-0.04818330330848691,-0.09425097351074285,0.07146093929367975,-0.0017812315942640183,0.00017756541663659466,0.50909036,-0.005970291,0.022244584,0.028381348
0.0,0.0,0.0,0.07890833,-0.018152347,0.99671644,0.9958566,0.046770956,-0.0779884,0.045201745,-0.99874073,-0.021767717,0.21711116895675653,-0.04339489998817442,-0.04876114196777337,0.07218919044199514,-0.00198929993623357,-6.712812028545517e-05,0.51524234,-0.005970291,0.022244584,0.028335571
0.0,0.0,0.0,0.07890833,-0.018152347,0.99671644,0.9958566,0.046770956,-0.0779884,0.045201745,-0.99874073,-0.021767717,0.2649952021598816,-0.01227027840614317,-0.07030895690918015,0.07315322050058456,-0.0020407048285831183,-0.00041833726422992864,0.5227471,-0.005970291,0.022244584,0.028320312
0.0,0.0,0.0,0.07890833,-0.018152347,0.99671644,0.9958566,0.046770956,-0.0779884,0.045201745,-0.99874073,-0.021767717,0.22668797559738152,-0.07212531991004942,-0.053549545288086975,0.07392089427606854,-0.00239112790399045,-0.0006839933043492138,0.52910817,-0.005970291,0.022244584,0.028060913
0.0,0.0,0.0,0.07890833,-0.018152347,0.99671644,0.9958566,0.046770956,-0.0779884,0.045201745,-0.99874073,-0.021767717,0.2003517573356628,-0.03860649666786192,0.037430117797850215,0.07455304859136651,-0.0025722047478098074,-0.0004934227488382167,0.5346752,-0.005970291,0.022244584,0.027786255
0.0,0.0,0.0,0.07890833,-0.018152347,0.99671644,0.9958566,0.046770956,-0.0779884,0.045201745,-0.99874073,-0.021767717,0.22908217725753777,-0.052971706628799436,-0.13734660339355464,0.07532569423469737,-0.002824202257214755,-0.0011776886520617987,0.5411454,-0.005970291,0.018365365,0.028244019
0.0,0.0,0.0,0.07890833,-0.018152347,0.99671644,0.9958566,0.046770956,-0.0779884,0.045201745,-0.99874073,-0.021767717,0.27217780714035034,-0.045789101648330666,-0.07749156188964967,0.07630995479922563,-0.003039026754170335,-0.001559258018249738,0.5491899,-0.005970291,0.018365365,0.029556274
0.0,0.0,0.0,0.07890833,-0.018152347,0.99671644,0.9958566,0.046770956,-0.0779884,0.045201745,-0.99874073,-0.021767717,0.2841488154411316,-0.06733691658973692,0.025459109497070642,0.07734914910243516,-0.003360516203348168,-0.001424166180673136,0.5572241,-0.005970291,0.018365365,0.028274536
0.0,0.0,0.0,0.07890833,-0.018152347,0.99671644,0.9958566,0.046770956,-0.0779884,0.045201745,-0.99874073,-0.021767717,0.21232276563644403,-0.04100069832801817,-0.02481912536621067,0.07802401718510521,-0.003548717113971518,-0.0015411409766008237,0.5632922,-0.005970291,0.018365365,0.028579712
0.0,0.0,0.0,0.07890833,-0.018152347,0.99671644,0.9958566,0.046770956,-0.0779884,0.045201745,-0.99874073,-0.021767717,0.21232276563644403,-0.06254851326942443,-0.07270315856933607,0.0786955109273619,-0.0038437160947487822,-0.0018969510645645,0.56947696,-0.005970291,0.018365365,0.029129028
0.0,0.0,0.0,0.07890833,-0.018152347,0.99671644,0.9958566,0.046770956,-0.0779884,0.045201745,-0.99874073,-0.021767717,0.18359234571456906,-0.026635488367080684,-0.09185677185058694,0.07921999510129794,-0.003957674956110442,-0.0023467501684946122,0.57470715,-0.005970291,0.018365365,0.02848816
0.0,0.0,0.0,0.07890833,-0.018152347,0.99671644,0.9958566,0.046770956,-0.0779884,0.045201745,-0.99874073,-0.021767717,0.21950537061691278,-0.029029690027236932,-0.046366940307617455,0.07992142197887601,-0.004083035031466075,-0.0025668511191902265,0.58090687,-0.005970291,0.018365365,0.028244019
0.0,0.0,0.0,0.07890833,-0.018152347,0.99671644,0.9958566,0.046770956,-0.0779884,0.045201745,-0.99874073,-0.021767717,0.19795755567550655,-0.04339489998817442,0.051795327758789256,0.08051160264735917,-0.004279594356249616,-0.002295040224800329,0.5864285,-0.005970291,0.018365365,0.027893066
0.0,0.0,0.0,0.07890833,-0.018152347,0.99671644,0.9958566,0.046770956,-0.0779884,0.045201745,-0.99874073,-0.021767717,0.22668797559738152,-0.005087673425674427,-0.005665512084961577,0.08124248451210928,-0.00428363475159674,-0.0023118925841011354,0.5927343,-0.005970291,0.018365365,0.027816772
0.0,0.0,0.0,0.07890833,-0.018152347,0.99671644,0.9958566,0.046770956,-0.0779884,0.045201745,-0.99874073,-0.021767717,0.22908217725753777,-0.045789101648330666,-0.01284811706542932,0.08198168297583643,-0.00449116208608041,-0.0023645737065077763,0.5992394,-0.005970291,0.018365365,0.028396606
0.0,0.0,0.0,0.07890833,-0.018152347,0.99671644,0.9958566,0.046770956,-0.0779884,0.045201745,-0.99874073,-0.021767717,0.2051401606559753,-0.00029927010536193177,-0.05594374694824289,0.08259747536423712,-0.004470202626176818,-0.002632469572716452,0.60496455,-0.005970291,0.018365365,0.027908325
0.0,0.0,0.0,0.07890833,-0.018152347,0.99671644,0.9958566,0.046770956,-0.0779884,0.045201745,-0.99874073,-0.021767717,0.16683293409347533,-0.04818330330848691,0.0637663360595706,0.0830186526578833,-0.004688768129588369,-0.0023004755445550167,0.60961294,-0.005970291,0.018365365,0.027862549
0.0,0.0,0.0,0.07890833,-0.018152347,0.99671644,0.9958566,0.046770956,-0.0779884,0.045201745,-0.99874073,-0.021767717,0.28893721876144407,-0.045789101648330666,-0.051155343627929284,0.0840482454884011,-0.0048942697971820805,-0.002544749884971888,0.61766344,-0.005970291,0.018365365,0.027862549
0.0,0.0,0.0,0.07890833,-0.018152347,0.99671644,0.9958566,0.046770956,-0.0779884,0.045201745,-0.99874073,-0.021767717,0.1811981440544128,-0.04339489998817442,-0.046366940307617455,0.08453399498123115,-0.005086772948137043,-0.002763860837085116,0.6226955,-0.005970291,0.018365365,0.027770996
0.0,0.0,0.0,0.07890833,-0.018152347,0.99671644,0.9958566,0.046770956,-0.0779884,0.045201745,-0.99874073,-0.021767717,0.19316915235519405,0.011671738195419307,-0.03679013366699202,0.08507717076810097,-0.005002980392419261,-0.0029339922012346508,0.62805706,-0.005970291,0.018365365,0.027755737
0.0,0.0,0.0,0.07890833,-0.018152347,0.99671644,0.9958566,0.046770956,-0.0779884,0.045201745,-0.99874073,-0.021767717,0.17162133741378782,-0.08170212655067444,-0.041578536987305625,0.08550989160132941,-0.005386476123210537,-0.0031272149251650055,0.63283366,-0.005970291,0.018365365,0.027832031
0.0,0.0,0.0,0.07890833,-0.018152347,0.99671644,0.9958566,0.046770956,-0.0779884,0.045201745,-0.99874073,-0.021767717,0.1955633540153503,-0.052971706628799436,-0.06552055358886832,0.0860601589133995,-0.005624402275738481,-0.003439181618483522,0.63826466,-0.005970291,0.018365365,0.027770996
0.0,0.0,0.0,0.07890833,-0.018152347,0.99671644,0.9958566,0.046770956,-0.0779884,0.045201745,-0.99874073,-0.021767717,0.21950537061691278,-0.06494271492958067,0.013488101196289293,0.08672738497191707,-0.005920993839007693,-0.003354545204409658,0.6443873,-0.005970291,0.018365365,0.027893066
0.0,0.0,0.0,0.07890833,-0.018152347,0.99671644,0.9958566,0.046770956,-0.0779884,0.045201745,-0.99874073,-0.021767717,0.22189957227706902,-0.04818330330848691,-0.041578536987305625,0.08740324590844283,-0.006132305386355089,-0.0035456651633241376,0.65055984,-0.005970291,0.018365365,0.027816772
0.0,0.0,0.0,0.07890833,-0.018152347,0.99671644,0.9958566,0.046770956,-0.0779884,0.045201745,-0.99874073,-0.021767717,0.11894890089035026,-0.06973111824989317,-0.02721332702636836,0.08756097418335236,-0.006450299450672779,-0.0036640034726393585,0.6538668,-0.005970291,0.018365365,0.027801514
0.0,0.0,0.0,0.07890833,-0.018152347,0.99671644,0.9958566,0.046770956,-0.0779884,0.045201745,-0.99874073,-0.021767717,0.14767932081222535,-0.05057750496864319,0.0637663360595706,0.08786156591649673,-0.006670935478262631,-0.0033268517749783085,0.6579748,-0.005970291,0.018365365,0.027816772
0.0,0.0,0.0,0.07890833,-0.018152347,0.99671644,0.9958566,0.046770956,-0.0779884,0.045201745,-0.99874073,-0.021767717,0.19316915235519405,-0.06494271492958067,0.051795327758789256,0.08838810384869021,-0.006962294375519221,-0.0030512408773094705,0.66334516,-0.005970291,0.018365365,0.027801514
0.0,0.0,0.0,0.07890833,-0.018152347,0.99671644,0.9958566,0.046770956,-0.0779884,0.045201745,-0.99874073,-0.021767717,0.1955633540153503,-0.03381809334754943,-0.03200173034668019,0.0889239800995235,-0.007096573370379371,-0.003195993324656324,0.66881794,-0.005970291,0.018365365,0.02798462
0.0,0.0,0.0,0.07890833,-0.018152347,0.99671644,0.9958566,0.046770956,-0.0779884,0.045201745,-0.99874073,-0.021767717,0.20753436231613154,-0.029029690027236932,0.020670706176757037,0.08951703201060654,-0.0072062389536636596,-0.003076659827149257,0.6746067,-0.005970291,0.018365365,0.027893066
0.0,0.0,0.0,0.07890833,-0.018152347,0.99671644,0.9958566,0.046770956,-0.0779884,0.045201745,-0.99874073,-0.021767717,0.17880394239425657,-0.026635488367080684,-0.10382778015136829,0.0899634665625248,-0.0073033852007307444,-0.0035804154287703517,0.67958313,-0.005970291,0.015475626,0.027832031
0.0,0.0,0.0,0.07890833,-0.018152347,0.99671644,0.9958566,0.046770956,-0.0779884,0.045201745,-0.99874073,-0.021767717,0.12134310255050651,-0.026635488367080684,-0.01284811706542932,0.0901203647424647,-0.007400045716562494,-0.0036267539369536465,0.68296593,-0.005970291,0.015475626,0.027877808
0.0,0.0,0.0,0.07890833,-0.018152347,0.99671644,0.9958566,0.046770956,-0.0779884,0.045201745,-0.99874073,-0.021767717,0.17640974073410032,-0.00029927010536193177,0.049401126098631565,0.09055181162242287,-0.007364541838506492,-0.0033616145367757204,0.6878704,-0.005970291,0.015475626,0.027801514
0.0,0.0,0.0,0.07890833,-0.018152347,0.99671644,0.9958566,0.046770956,-0.0779884,0.045201745,-0.99874073,-0.021767717,0.20753436231613154,-0.03860649666786192,-0.015242318725587012,0.09113672437589142,-0.007520751612653269,-0.003421018057719777,0.69364333,-0.005970291,0.015475626,0.027816772
0.0,0.0,0.0,0.07890833,-0.018152347,0.99671644,0.9958566,0.046770956,-0.0779884,0.045201745,-0.99874073,-0.021767717,0.241053185558319,-0.06973111824989317,-0.03200173034668019,0.09188630668180355,-0.007831803445839468,-0.003563921619164579,0.7003487,-0.005970291,0.015475626,0.027816772
0.0,0.0,0.0,0.07890833,-0.018152347,0.99671644,0.9958566,0.046770956,-0.0779884,0.045201745,-0.99874073,-0.021767717,0.29851402540206906,-0.0026934717655181795,-0.029607528686524276,0.09291944527540487,-0.007806111787437861,-0.0036941396545013775,0.708666,-0.005970291,0.015475626,0.027862549
0.0,0.0,0.0,0.07890833,-0.018152347,0.99671644,0.9958566,0.046770956,-0.0779884,0.045201745,-0.99874073,-0.021767717,0.20753436231613154,-0.01945288338661194,-0.03918433532714971,0.0934925198606085,-0.00786434564543373,-0.0038715906328646195,0.71444213,-0.005970291,0.015475626,0.027832031
0.0,0.0,0.0,0.07890833,-0.018152347,0.99671644,0.9958566,0.046770956,-0.0779884,0.045201745,-0.99874073,-0.021767717,0.2362647822380065,-0.07212531991004942,0.05418952941894517,0.0942063811724955,-0.00818565051675681,-0.00358128503260557,0.72101426,-0.005970291,0.015475626,0.027816772
0.0,0.0,0.0,0.07890833,-0.018152347,0.99671644,0.9958566,0.046770956,-0.0779884,0.045201745,-0.99874073,-0.021767717,0.22668797559738152,-0.02184708504676819,0.04700692443847565,0.09486878914461992,-0.008253957689406866,-0.003328343985250164,0.72731656,-0.005970291,0.015475626,0.027801514
0.0,0.0,0.0,0.07890833,-0.018152347,0.99671644,0.9958566,0.046770956,-0.0779884,0.045201745,-0.99874073,-0.021767717,0.23147637891769401,-0.11043254647254941,-0.03200173034668019,0.0955518270934853,-0.008764850633322578,-0.003471710917057314,0.7338897,-0.0091062,0.015475626,0.028396606
0.0,0.0,0.0,0.07890833,-0.018152347,0.99671644,0.9958566,0.046770956,-0.0779884,0.045201745,-0.99874073,-0.021767717,0.25781259717941274,-0.06973111824989317,-0.04876114196777337,0.09636313094391494,-0.009069681971405431,-0.0036981580723108943,0.74107695,-0.0091062,0.015475626,0.027877808
0.0,0.0,0.0,0.07890833,-0.018152347,0.99671644,0.9958566,0.046770956,-0.0779884,0.045201745,-0.99874073,-0.021767717,0.22908217725753777,-0.04339489998817442,-0.07988576354980559,0.09702672617548305,-0.009241308061489276,-0.0040790960996983676,0.74745977,-0.0091062,0.015475626,0.027862549
0.0,0.0,0.0,0.07890833,-0.018152347,0.99671644,0.9958566,0.046770956,-0.0779884,0.045201745,-0.99874073,-0.021767717,0.22189957227706902,-0.09846153817176817,-0.07509736022949198,0.09765109040599097,-0.00968740921204067,-0.004434187420347335,0.7536357,-0.0091062,0.015475626,0.027832031
0.0,0.0,0.0,0.07890833,-0.018152347,0.99671644,0.9958566,0.046770956,-0.0779884,0.045201745,-0.99874073,-0.021767717,0.18838074903488156,-0.09367313485145567,-0.07030895690918015,0.09810473869913541,-0.010107337840237747,-0.004763561267791499,0.7588787,-0.0091062,0.015475626,0.027832031
0.0,0.0,0.0,0.07890833,-0.018152347,0.99671644,0.9958566,0.046770956,-0.0779884,0.045201745,-0.99874073,-0.021767717,0.20274595899581904,-0.09846153817176817,-0.046366940307617455,0.09862794480061883,-0.010549108841895399,-0.00497157816299063,0.76451844,-0.0091062,0.015475626,0.027816772
0.0,0.0,0.0,0.07890833,-0.018152347,0.99671644,0.9958566,0.046770956,-0.0779884,0.045201745,-0.99874073,-0.021767717,0.17640974073410032,-0.14634557137489318,-0.022424923706054756,0.09901685378028624,-0.011228091154560386,-0.00505884489070595,0.76942825,-0.013179295,0.015475626,0.027832031
0.0,0.0,0.0,0.07890833,-0.018152347,0.99671644,0.9958566,0.046770956,-0.0779884,0.045201745,-0.99874073,-0.021767717,0.18838074903488156,-0.052971706628799436,-0.07988576354980559,0.0994636732565592,-0.01143680923193158,-0.0054329794840014475,0.7746684,-0.013179295,0.015475626,0.027816772
0.0,0.0,0.0,0.07890833,-0.018152347,0.99671644,0.9958566,0.046770956,-0.0779884,0.045201745,-0.99874073,-0.021767717,0.22429377393722527,-0.05776010994911193,0.0063054962158197725,0.10008782375996254,-0.011668425735517483,-0.005374287105502341,0.7809075,-0.013179295,0.015475626,0.027816772
0.0,0.0,0.0,0.07890833,-0.018152347,0.99671644,0.9958566,0.046770956,-0.0779884,0.045201745,-0.99874073,-0.021767717,0.2649952021598816,-0.02184708504676819,-0.03679013366699202,0.10091236065196214,-0.011719319032073737,-0.005531366338309789,0.7882707,-0.013179295,0.015475626,0.027786255
0.0,0.0,0.0,0.07890833,-0.018152347,0.99671644,0.9958566,0.046770956,-0.0779884,0.045201745,-0.99874073,-0.021767717,0.16443873243331908,0.004489133214950564,-0.051155343627929284,0.10122999251086894,-0.011638276770838616,-0.005759486224757887,0.7928373,-0.013179295,0.015475626,0.027770996
0.0,0.0,0.0,0.07890833,-0.018152347,0.99671644,0.9958566,0.046770956,-0.0779884,0.045201745,-0.99874073,-0.021767717,0.17880394239425657,-0.04339489998817442,-0.02481912536621067,0.10161786226028588,-0.011797059886925296,-0.0058547844204651514,0.79780835,-0.013179295,0.015475626,0.027801514
0.0,0.0,0.0,0.07890833,-0.018152347,0.99671644,0.9958566,0.046770956,-0.0779884,0.045201745,-0.99874073,-0.021767717,0.21950537061691278,-0.009876076745986923,-0.034395932006836105,0.10220729980206901,-0.011787454971220603,-0.005997490158397006,0.8039243,-0.013179295,0.015475626,0.027862549
0.0,0.0,0.0,0.07890833,-0.018152347,0.99671644,0.9958566,0.046770956,-0.0779884,0.045201745,-0.99874073,-0.021767717,0.15246772413253784,-0.045789101648330666,-0.04876114196777337,0.10245860192372136,-0.011957463204606153,-0.006211308417443888,0.8081771,-0.013179295,0.015475626,0.027893066
0.0,0.0,0.0,0.07890833,-0.018152347,0.99671644,0.9958566,0.046770956,-0.0779884,0.045201745,-0.99874073,-0.021767717,0.15965032911300658,-0.029029690027236932,-0.06073215026855472,0.10274456055966778,-0.012042824338719307,-0.006483912626699442,0.8126132,-0.013179295,0.015475626,0.027786255
0.0,0.0,0.0,0.07890833,-0.018152347,0.99671644,0.9958566,0.046770956,-0.0779884,0.045201745,-0.99874073,-0.021767717,0.2362647822380065,-0.04339489998817442,0.03024751281738247,0.10341216166805949,-0.012199584716966581,-0.006300255499479033,0.8191781,-0.013179295,0.015475626,0.027786255
0.0,0.0,0.0,0.07890833,-0.018152347,0.99671644,0.9958566,0.046770956,-0.0779884,0.045201745,-0.99874073,-0.021767717,0.17640974073410032,-0.01227027840614317,-0.03200173034668019,0.1037771495633897,-0.012199938185412464,-0.006428762873715039,0.8240772,-0.013179295,0.015475626,0.027770996
0.0,0.0,0.0,0.07890833,-0.018152347,0.99671644,0.9958566,0.046770956,-0.0779884,0.045201745,-0.99874073,-0.021767717,0.17162133741378782,-0.08649052987098693,-0.034395932006836105,0.10411637050264169,-0.012571391143840335,-0.006568598719380644,0.8288538,-0.013179295,0.015475626,0.027832031
0.0,0.0,0.0,0.07890833,-0.018152347,0.99671644,0.9958566,0.046770956,-0.0779884,0.045201745,-0.99874073,-0.021767717,0.2649952021598816,-0.10564414315223691,-0.010453915405273406,0.1049207646609279,-0.013036754903882317,-0.006588025302810108,0.8362332,-0.016121197,0.015475626,0.02784729
0.0,0.0,0.0,0.07890833,-0.018152347,0.99671644,0.9958566,0.046770956,-0.0779884,0.045201745,-0.99874073,-0.021767717,0.21232276563644403,-0.07930792489051819,-0.02003072204589884,0.10545777466580547,-0.013368110753815497,-0.006655238786525551,0.8421393,-0.016121197,0.015475626,0.027816772
0.0,0.0,0.0,0.07890833,-0.018152347,0.99671644,0.9958566,0.046770956,-0.0779884,0.045201745,-0.99874073,-0.021767717,0.1907749506950378,-0.029029690027236932,-0.041578536987305625,0.10588436054595164,-0.013446418650182604,-0.006829855277529452,0.84744895,-0.016121197,0.015475626,0.027832031
0.0,0.0,0.0,0.07890833,-0.018152347,0.99671644,0.9958566,0.046770956,-0.0779884,0.045201745,-0.99874073,-0.021767717,0.21471696729660028,-0.009876076745986923,-0.041578536987305625,0.10642852357970488,-0.013428566940661626,-0.007003598686078333,0.85342497,-0.016121197,0.015475626,0.027832031
0.0,0.0,0.0,0.07890833,-0.018152347,0.99671644,0.9958566,0.046770956,-0.0779884,0.045201745,-0.99874073,-0.021767717,0.18838074903488156,-0.02184708504676819,-0.053549545288086975,0.10683828470698076,-0.013470659531192159,-0.007236328419088376,0.8586651,-0.016121197,0.015475626,0.027816772
0.0,0.0,0.0,0.07890833,-0.018152347,0.99671644,0.9958566,0.046770956,-0.0779884,0.045201745,-0.99874073,-0.021767717,0.23387058057785026,-0.07691372323036191,-0.03679013366699202,0.1074734461863351,-0.013787874849688008,-0.007384097445327894,0.86530983,-0.016121197,0.015475626,0.028411865
0.0,0.0,0.0,0.07890833,-0.018152347,0.99671644,0.9958566,0.046770956,-0.0779884,0.045201745,-0.99874073,-0.021767717,0.1404967158317565,-0.01945288338661194,-0.046366940307617455,0.10763856253456221,-0.013816199892372627,-0.007579011659639342,0.8692266,-0.016121197,0.015475626,0.027877808
0.0,0.0,0.0,0.07890833,-0.018152347,0.99671644,0.9958566,0.046770956,-0.0779884,0.045201745,-0.99874073,-0.021767717,0.21232276563644403,0.01646014151573183,-0.03200173034668019,0.10816198355007162,-0.013664818185332104,-0.007701125253074547,0.8751489,-0.016121197,0.015475626,0.027893066
0.0,0.0,0.0,0.07890833,-0.018152347,0.99671644,0.9958566,0.046770956,-0.0779884,0.045201745,-0.99874073,-0.021767717,0.2458415888786315,-0.045789101648330666,0.027853311157226557,0.10885038157671441,-0.013825439602647097,-0.007523353071023042,0.8819949,-0.016121197,0.015475626,0.02784729
0.0,0.0,0.0,0.07890833,-0.018152347,0.99671644,0.9958566,0.046770956,-0.0779884,0.045201745,-0.99874073,-0.021767717,0.250629992198944,0.006883334875106811,0.056583731079101085,0.10955927962982556,-0.013721895730258329,-0.007202817650272421,0.8889666,-0.016121197,0.015475626,0.027816772
0.0,0.0,0.0,0.07890833,-0.018152347,0.99671644,0.9958566,0.046770956,-0.0779884,0.045201745,-0.99874073,-0.021767717,0.21232276563644403,-0.06494271492958067,-0.03200173034668019,0.11007309705985865,-0.01397799982625494,-0.007326812213754461,0.894876,-0.016121197,0.015475626,0.027832031
0.0,0.0,0.0,0.07890833,-0.018152347,0.99671644,0.9958566,0.046770956,-0.0779884,0.045201745,-0.99874073,-0.021767717,0.29851402540206906,-0.01945288338661194,-0.058337948608398804,0.1110153017015697,-0.014005374244056725,-0.007581867895727682,0.90318424,-0.016121197,0.015475626,0.027832031
0.0,0.0,0.0,0.07890833,-0.018152347,0.99671644,0.9958566,0.046770956,-0.0779884,0.045201745,-0.99874073,-0.021767717,0.21711116895675653,-0.05057750496864319,0.0350359161376943,0.11154578103784564,-0.014188234897679657,-0.007368778975560572,0.9092401,-0.016121197,0.015475626,0.027893066
0.0,0.0,0.0,0.07890833,-0.018152347,0.99671644,0.9958566,0.046770956,-0.0779884,0.045201745,-0.99874073,-0.021767717,0.20274595899581904,-0.03142389168739318,-0.034395932006836105,0.11200178192763552,-0.014274413181628224,-0.007503914740716949,0.91487676,-0.016121197,0.015475626,0.027801514
0.0,0.0,0.0,0.07890833,-0.018152347,0.99671644,0.9958566,0.046770956,-0.0779884,0.045201745,-0.99874073,-0.021767717,0.22668797559738152,-0.007481875085830675,-0.04397273864746154,0.11257521289598424,-0.014240450491149236,-0.007686258860250672,0.921186,-0.016121197,0.015475626,0.027832031
0.0,0.0,0.0,0.07890833,-0.018152347,0.99671644,0.9958566,0.046770956,-0.0779884,0.045201745,-0.99874073,-0.021767717,0.241053185558319,-0.026635488367080684,0.032641714477538386,0.1132176027592959,-0.014302425680528892,-0.007484618993561727,0.9278876,-0.016121197,0.015475626,0.027801514
0.0,0.0,0.0,0.07890833,-0.018152347,0.99671644,0.9958566,0.046770956,-0.0779884,0.045201745,-0.99874073,-0.021767717,0.1811981440544128,-0.03860649666786192,-0.05594374694824289,0.11355750546577148,-0.014423946035465558,-0.007726914633335132,0.9329307,-0.016121197,0.015475626,0.027832031
0.0,0.0,0.0,0.07890833,-0.018152347,0.99671644,0.9958566,0.046770956,-0.0779884,0.045201745,-0.99874073,-0.021767717,0.25781259717941274,-0.00029927010536193177,-0.02481912536621067,0.11427878092433968,-0.01435332265581504,-0.00781237568699951,0.9401219,-0.016121197,0.015475626,0.027893066
0.0,0.0,0.0,0.07890833,-0.018152347,0.99671644,0.9958566,0.046770956,-0.0779884,0.045201745,-0.99874073,-0.021767717,0.27217780714035034,-0.06015431160926818,-0.02003072204589884,0.11506827605541974,-0.014582327600582303,-0.007873467418794007,0.94769716,-0.016121197,0.015475626,0.027832031
0.0,0.0,0.0,0.07890833,-0.018152347,0.99671644,0.9958566,0.046770956,-0.0779884,0.045201745,-0.99874073,-0.021767717,0.24823579053878775,-0.03381809334754943,-0.022424923706054756,0.11573411362783657,-0.01467850642931714,-0.007946224700230311,0.9546136,-0.016121197,0.015475626,0.027862549
0.0,0.0,0.0,0.07890833,-0.018152347,0.99671644,0.9958566,0.046770956,-0.0779884,0.045201745,-0.99874073,-0.021767717,0.241053185558319,-0.03142389168739318,0.015882302856445207,0.11636070898748899,-0.01476223335560752,-0.007827082062446934,0.9613226,-0.016121197,0.015475626,0.027832031
0.0,0.0,0.0,0.07890833,-0.018152347,0.99671644,0.9958566,0.046770956,-0.0779884,0.045201745,-0.99874073,-0.021767717,0.20753436231613154,-0.02184708504676819,-0.03200173034668019,0.11681657725413219,-0.014797657614063323,-0.0079479553038681,0.96709555,-0.016121197,0.015475626,0.027816772
0.0,0.0,0.0,0.07890833,-0.018152347,0.99671644,0.9958566,0.046770956,-0.0779884,0.045201745,-0.99874073,-0.021767717,0.21471696729660028,-0.03142389168739318,-0.02721332702636836,0.11730607920434452,-0.014880788784429973,-0.008044282162480602,0.973065,-0.016121197,0.015475626,0.027801514
0.0,0.0,0.0,0.07890833,-0.018152347,0.99671644,0.9958566,0.046770956,-0.0779884,0.045201745,-0.99874073,-0.021767717,0.1859865473747253,-0.01945288338661194,0.013488101196289293,0.11764948154519643,-0.014903649257440883,-0.007936620245686752,0.97823286,-0.016121197,0.015475626,0.027786255
0.0,0.0,0.0,0.07890833,-0.018152347,0.99671644,0.9958566,0.046770956,-0.0779884,0.045201745,-0.99874073,-0.021767717,0.19795755567550655,-0.005087673425674427,0.07334314270019426,0.11805102191584799,-0.01485456937828205,-0.007530221430957347,0.98372734,-0.016121197,0.015475626,0.027755737
0.0,0.0,0.0,0.07890833,-0.018152347,0.99671644,0.9958566,0.046770956,-0.0779884,0.045201745,-0.99874073,-0.021767717,0.24344738721847525,0.014065939855575582,-0.09185677185058694,0.11867800374236112,-0.014709966832112762,-0.007951854183055496,0.9904918,-0.016121197,0.015475626,0.027786255
0.0,0.0,0.0,0.07890833,-0.018152347,0.99671644,0.9958566,0.046770956,-0.0779884,0.045201745,-0.99874073,-0.021767717,0.16683293409347533,-0.01227027840614317,-0.06312635192871063,0.11891877839411669,-0.014697768389982914,-0.00822772667178377,0.99513,-0.016121197,0.015475626,0.027801514
0.0,0.0,0.0,0.07890833,-0.018152347,0.99671644,0.9958566,0.046770956,-0.0779884,0.045201745,-0.99874073,-0.021767717,0.18359234571456906,-0.05776010994911193,-0.06312635192871063,0.11924214623071895,-0.01491308009777856,-0.008502219798068405,1.0002314,-0.016121197,0.015475626,0.027786255
0.0,0.0,0.0,0.07890833,-0.018152347,0.99671644,0.9958566,0.046770956,-0.0779884,0.045201745,-0.99874073,-0.021767717,0.22908217725753777,-0.00029927010536193177,-0.06312635192871063,0.11979134638585305,-0.014840011047816477,-0.008775340458721616,1.0065967,-0.016121197,0.015475626,0.027786255
0.0,0.0,0.0,0.07890833,-0.018152347,0.99671644,0.9958566,0.046770956,-0.0779884,0.045201745,-0.99874073,-0.021767717,0.2362647822380065,-0.036212295007705675,0.008699697875975687,0.12037371356511382,-0.014946872467615923,-0.008687965267048129,1.0132949,-0.016121197,0.015475626,0.02835083
0.0,0.0,0.0,0.07890833,-0.018152347,0.99671644,0.9958566,0.046770956,-0.0779884,0.045201745,-0.99874073,-0.021767717,0.16922713575363157,-0.04339489998817442,-0.041578536987305625,0.12061798067605642,-0.015089112605218715,-0.008852418125649417,1.0180023,-0.016121197,0.015475626,0.027816772
0.0,0.0,0.16304174,0.07882533,-0.018509444,0.99671644,0.99605817,0.042261407,-0.0779884,0.040679153,-0.99893516,-0.021767717,0.15315603857040405,-0.8161548705101013,0.09010255432128922,0.12078067096552815,-0.01909444139474313,-0.008357643263414724,1.0222555,-0.03878663,0.015475626,0.027770996
0.0,0.0,-0.22039777,0.07893745,-0.018025307,0.99671644,0.99578005,0.0483739,-0.0779884,0.04680933,-0.9986667,-0.021767717,0.06124660263061521,-0.5185003556966781,0.0015170928955079432,0.12048300062385359,-0.021591470966252805,-0.008308269582620112,1.0222555,-0.05322546,0.015475626,0.02784729
0.0,-0.021856586,-0.08410222,0.07958608,-0.017839674,0.9966682,0.9956164,0.050705846,-0.07859443,0.049134843,-0.99855435,-0.021796916,0.17557766447067258,0.7680407134056091,0.19345376892089838,0.12075847394308768,-0.017643310044393495,-0.00729945939010252,1.0271449,-0.03183761,0.02086279,0.02784729
0.0838704,-0.02971723,-0.024947552,0.08042151,-0.015458952,0.9966409,0.99551564,0.05121227,-0.07953629,0.049810734,-0.9985682,-0.01950816,1.310683770084381,-0.26205547208786006,0.25353483123779164,0.12670810042379416,-0.018865370854610826,-0.005995287936963049,1.0636039,-0.039127145,0.02791531,0.027816772
0.19165447,-0.13377082,-0.17563209,0.08419333,-0.009740945,0.99640167,0.99495095,0.05564234,-0.08352671,0.05462853,-0.9984033,-0.014376439,1.111810328388214,-0.5991726759433746,0.5021212448120114,0.13163361156361625,-0.021766907380054646,-0.0034547052732181766,1.0945479,-0.055803336,0.041890364,0.027832031
0.020185873,0.09112351,-0.45901492,0.08177869,-0.008119962,0.99661726,0.9943674,0.06831067,-0.08103744,0.06742162,-0.99763113,-0.013660548,1.8548835293769836,0.1918364537835121,-0.5722692382812502,0.1402498611526831,-0.020698890574236812,-0.006298777938258337,1.1462014,-0.05046121,0.025954217,0.02784729
0.05669123,0.34639457,-0.23838401,0.07222393,-0.006038204,0.99737,0.99462813,0.074781604,-0.07157257,0.074152805,-0.9971817,-0.011406755,1.5797783102989196,1.077186676031351,-0.0039026382446287755,0.14744750339841425,-0.015209462741208872,-0.006286797239790189,1.1901217,-0.02051379,0.025954217,0.027801514
-0.094393,0.42233637,0.041401606,0.060486957,-0.008736002,0.9981306,0.9954852,0.07380739,-0.05968058,0.07314809,-0.9972343,-0.01316091,1.5023350799560546,0.10596553460359573,1.299419021606445,0.15422194128120248,-0.014603587754484849,0.00024173185444098695,1.2319347,-0.017564554,0.06211969,0.027832031
0.15861313,0.1589382,0.0,0.056073397,-0.00433147,0.99841714,0.99574006,0.07355306,-0.055603877,0.07319583,-0.9972819,-0.008437352,1.1702291802883147,-1.2593426905214786,1.8596798553466787,0.15930197747623803,-0.02082728326831982,0.009538922471902175,1.2644867,-0.052595403,0.11384998,0.027816772
0.583754,-0.21344312,-0.14179134,0.06199809,0.012147836,0.99800223,0.99509126,0.07652499,-0.062748656,0.0771344,-0.99699366,0.0073438417,1.3293918709754944,-0.03609723378419877,0.5487040008544923,0.1651524269437343,-0.020903633020899214,0.012234747863815126,1.3015472,-0.052595403,0.12914665,0.027877808
0.67608327,-0.30830374,0.0,0.070549026,0.030899284,0.99702954,0.9945107,0.07525188,-0.07270288,0.07727482,-0.99668574,0.025420763,1.2129900955200195,1.0246535267829895,-0.4799181869506839,0.17039161528661573,-0.01567584722187977,0.009773983189742631,1.3352702,-0.024108484,0.115804195,0.027801514
0.3368765,-0.2896514,0.21020558,0.07879918,0.03981632,0.996095,0.99431044,0.0687042,-0.08140421,0.07167713,-0.99684227,0.034175985,1.1230246718406676,0.5149607989311218,-0.0986731704711925,0.175154780569386,-0.013022663991114763,0.009231747421437956,1.3665605,-0.009760364,0.115804195,0.027862549
0.27092707,-0.3715886,0.31905553,0.08949651,0.04658711,0.99489695,0.99398005,0.059205573,-0.092186324,0.06319815,-0.99715817,0.041008003,1.3934431822776792,-0.6113967364788055,-0.45265644378662184,0.18124622257792747,-0.01601453435355322,0.006922306465397656,1.4054066,-0.026804764,0.103185125,0.027877808
0.22069888,-0.3169638,0.14065889,0.098471984,0.05233333,0.99376273,0.99334884,0.054716207,-0.101312354,0.059676953,-0.9971296,0.046597276,1.965444899845123,-0.8769218983650207,-0.8311110229492193,0.19016721596426345,-0.020319071173610554,0.00273213981832457,1.460169,-0.05123804,0.08002825,0.027862549
-0.04429805,0.0,0.06858078,0.098570526,0.05092002,0.9938264,0.99345165,0.052944932,-0.10124599,0.057773527,-0.9972984,0.045367803,1.3948077250480653,0.25049649419784537,-1.7366475860595703,0.19619041850968244,-0.018964993346753275,-0.005964758811064903,1.4989893,-0.044266216,0.03169382,0.027832031
0.063619256,0.34639457,0.09815811,0.08911064,0.05242661,0.99464095,0.9945244,0.050053738,-0.09173842,0.054595042,-0.99736965,0.047679257,1.3367880757331845,0.920349999332428,-0.9796521316528324,0.20189340679579995,-0.014268418383357368,-0.01083319567527374,1.5362561,-0.018608876,0.0043832664,0.027877808
0.0,0.17932259,0.27988553,0.08453354,0.051747676,0.99507594,0.99533254,0.04227355,-0.08675365,0.046554703,-0.9977651,0.047932647,0.44340100021362305,0.13589376583099366,0.23538876342773385,0.20310094476288906,-0.013517607462285613,-0.009602085879758703,1.5486442,-0.014812161,0.010959756,0.027938843
0.0,0.0,0.349299,0.08503344,0.050922062,0.99507594,0.9956969,0.032579303,-0.086753644,0.03683657,-0.99817115,0.047932647,0.7935972832679747,-0.2451201771736145,-0.2458457702636725,0.2060534264554145,-0.014675620310842257,-0.010783304301678271,1.5707679,-0.021645574,0.0041061146,0.027877808
-0.098789625,-0.056896403,0.26789472,0.08697736,0.04754292,0.9950751,0.9957745,0.025391577,-0.08825158,0.029462278,-0.9985465,0.045133572,-0.19217518053054816,0.15160973401069633,-0.746227241516114,0.20406228342048469,-0.013844193539234563,-0.01446052398775045,1.5654163,-0.017423654,-0.016674291,0.02784729
-0.080403715,0.09885092,0.25696975,0.08457038,0.04470382,0.99541414,0.99617016,0.018466454,-0.08546386,0.02220234,-0.99882966,0.042970933,-0.5720459774971008,0.5606205724239349,-1.3356180801391604,0.20018174211589676,-0.010971869709418715,-0.021066311768507498,1.5495039,-0.001828999,-0.053826876,0.027816772
0.3448704,0.11523836,0.34130514,0.0818413,0.053476904,0.9952096,0.99656636,0.008184399,-0.08239258,0.012551302,-0.9985355,0.052623495,-1.112051424407959,-0.36925785598754884,-0.9101477996826173,0.19362057628327747,-0.012763299640809366,-0.025511719208078047,1.5185193,-0.012117464,-0.07918591,0.027862549
0.3240863,-0.054231778,0.37248126,0.08397941,0.061742853,0.99455273,0.9964653,-0.0031036977,-0.08394816,0.0020964157,-0.9980873,0.061785292,-1.6708721297264097,-0.21993412466049195,0.12241210021972648,0.18429811275322905,-0.01379915376590778,-0.024772100110939024,1.4711487,-0.018352779,-0.07571542,0.02835083
0.06748296,-0.14749365,0.33024696,0.08864136,0.06281885,0.99408066,0.9960402,-0.012437775,-0.08803004,-0.0068341987,-0.99794745,0.06367263,-1.067887087917328,-0.7843120231628418,-0.24716852569580094,0.17803718674987626,-0.01765171811289245,-0.025884082238863335,1.4413784,-0.04021768,-0.082605936,0.027877808
0.0,0.0,0.11707695,0.08884569,0.06252952,0.99408066,0.9959944,-0.015685074,-0.08803004,-0.010087746,-0.99791986,0.06367263,-1.086340999984741,0.467860628414154,-0.6350291946411133,0.17171529581620318,-0.015224156380257217,-0.028929807800874584,1.4111267,-0.027189028,-0.10028978,0.02784729
0.03324253,0.0,0.12933421,0.08907148,0.063128024,0.9940226,0.99593145,-0.019345596,-0.088013865,-0.013673813,-0.99781793,0.06459435,-1.1001844882011413,0.5347233398437499,-0.5028664978027351,0.16535579689611646,-0.012474418899137182,-0.03129949125088389,1.3805567,-0.0123310685,-0.11426255,0.027786255
-0.07187691,-0.15508783,0.13306469,0.09358856,0.060802788,0.9937525,0.9954643,-0.022850825,-0.09235157,-0.017092826,-0.9978882,0.062665604,-1.7266177084922791,-0.1403122045516968,0.607889051818848,0.15589592936917449,-0.013113607827399981,-0.02810354853553523,1.3325278,-0.016234102,-0.09735304,0.027816772
-0.29344046,-0.11058859,0.083902374,0.09677458,0.052477356,0.9939218,0.99512035,-0.024404958,-0.095602654,-0.019239644,-0.99832386,0.054583095,-0.8671844623565674,-0.21492242617607119,0.4364959716796868,0.15078052741054576,-0.014122651919143338,-0.02578055093445912,1.308432,-0.022205992,-0.08522445,0.027786255
-0.7446947,0.4579091,0.0,0.08412056,0.031898197,0.9959448,0.99625885,-0.022553442,-0.08342466,-0.019800924,-0.99923664,0.033676095,-0.7311213932991028,-0.4416991675853729,0.5394299697875979,0.14637101780699754,-0.016260534497474485,-0.022954498330848835,1.288128,-0.034472417,-0.07024394,0.027770996
-0.20763955,0.5209275,-0.19748202,0.06951793,0.026563685,0.9972269,0.99747163,-0.016636485,-0.06909176,-0.014755061,-0.9995087,0.027653076,-0.9859130720138549,1.1348284175634384,1.994049824523925,0.1407095973578933,-0.010505089737169921,-0.012869476716574966,1.2607031,-0.0029051532,-0.0147759095,0.027816772
-0.38017398,-0.06782136,-0.124604516,0.071322195,0.016278014,0.9973204,0.9973899,-0.012444666,-0.07112397,-0.011253605,-0.9997901,0.017123125,-0.5723135288238526,-0.8197334547281265,0.6740684188842767,0.13714448172698457,-0.014551231562124704,-0.009434787238570707,1.2448094,-0.025669968,0.003943642,0.027770996
-0.22416022,-0.050634533,-0.15258309,0.07267038,0.010364857,0.99730206,0.99733156,-0.0077633657,-0.07259177,-0.00699006,-0.99991614,0.010901384,-0.1405665629386902,0.08642789809703827,-0.4295059585571295,0.1357559265036562,-0.014046335913828888,-0.0115351430951635,1.2408993,-0.025669968,-0.008003827,0.027816772
-0.38537002,-0.05956103,-0.13179901,0.07430562,-6.796699e-05,0.9972354,0.99723005,-0.003314741,-0.07430537,-0.0033106692,-0.9999945,0.00017854385,-0.31214470405578615,0.19449397729765622,-0.40501081085205115,0.133516423350859,-0.013003634347771463,-0.013502521433947938,1.232207,-0.020253837,-0.019282281,0.02784729
-0.49288762,0.053152606,-0.16657236,0.07286461,-0.013378525,0.997252,0.997341,0.0023059417,-0.0728401,0.001325069,-0.99990785,-0.013510955,0.25286601467132563,-0.054253266727924326,0.01862460021972545,0.13411317130746134,-0.013209882509672227,-0.013341885825679571,1.2392293,-0.020253837,-0.019282281,0.027770996
0.0,0.0,-0.15338248,0.07292099,-0.01306769,0.997252,0.9973221,0.006558847,-0.0728401,0.005588929,-0.9998931,-0.013510955,0.5420968171119689,0.12273413571119308,-0.1106622894287117,0.1361530895364839,-0.012530162418567902,-0.013828487843694733,1.2543005,-0.016841643,-0.02235886,0.027801514
-0.05215869,0.0,-0.02361524,0.07293004,-0.01446667,0.997232,0.99731755,0.0073196623,-0.07283004,0.006245751,-0.9998686,-0.014961669,0.5396275732040405,0.08166328135728837,-0.32597449951171953,0.13817046195482166,-0.01205919519968862,-0.015389217902034857,1.2693112,-0.016841643,-0.03142642,0.027816772
0.0,0.021710029,-0.02254939,0.07233718,-0.014421136,0.9972759,0.99735653,0.007944901,-0.072228074,0.006881604,-0.99986446,-0.014957707,0.19259641828536977,-0.024059194564819336,-0.04382300720214971,0.13844259173647439,-0.012119195196514273,-0.01553138684853543,1.2746657,-0.016841643,-0.03142642,0.027801514
0.0,0.036232233,0.0,0.071328714,-0.014421136,0.99734855,0.9974291,0.007944901,-0.071219526,0.0068967254,-0.99986446,-0.014950741,0.19856534433364859,-0.06715482444763182,0.051342337036132335,0.13874320549946026,-0.012394373342769861,-0.015197018229112092,1.2802074,-0.016841643,-0.03142642,0.027908325
0.0,0.023575267,-0.035606053,0.070687845,-0.014350691,0.9973952,0.9974673,0.008934445,-0.07056434,0.0078984825,-0.9998571,-0.014945881,0.18233217754364006,-0.08689263775348663,-0.12860902557373066,0.13896115035968118,-0.012766864664823446,-0.015764078265835185,1.2852876,-0.016841643,-0.035009794,0.027862549
0.0,0.022642648,-0.03414051,0.070073225,-0.014283852,0.99743956,0.99750257,0.009881736,-0.069936074,0.008857434,-0.9998492,-0.014940605,0.2688320059776306,0.02508054687976838,0.05058798065185499,0.13961050463777094,-0.012577627607100485,-0.015432317971246732,1.2927656,-0.016841643,-0.035009794,0.027816772
0.0,0.020111257,0.0,0.0695146,-0.014283852,0.99747866,0.99754155,0.009881736,-0.069377415,0.0088658,-0.9998492,-0.014935642,0.29261827106475824,-0.06589912365674971,0.07420670166015597,0.14037554346990588,-0.012844235087348731,-0.014984122873089718,1.3009143,-0.016841643,-0.035009794,0.02784729
0.0,0.0,0.0,0.0695146,-0.014283852,0.99747866,0.99754155,0.009881736,-0.069377415,0.0088658,-0.9998492,-0.014935642,0.385992135810852,-0.018015090453624705,-0.07423380126953205,0.14160362643161062,-0.012870089364180113,-0.015280371265071929,1.3116455,-0.016841643,-0.035009794,0.027801514
0.0,0.0,0.0,0.0695146,-0.014283852,0.99747866,0.99754155,0.009881736,-0.069377415,0.0088658,-0.9998492,-0.014935642,0.24712843952178953,-0.13533097180128095,-0.14127144775390654,0.1421312504970615,-0.013482393776365616,-0.015910326647516102,1.3185312,-0.020612309,-0.038945977,0.027862549
0.0,0.0,0.0,0.0695146,-0.014283852,0.99747866,0.99754155,0.009881736,-0.069377415,0.0088658,-0.9998492,-0.014935642,0.28782986774444574,-0.10181214855909346,0.01914006347656283,0.1428597435832984,-0.013924042550279256,-0.015735074696895706,1.3265376,-0.023444394,-0.038945977,0.027816772
0.0,0.0,0.0,0.0695146,-0.014283852,0.99747866,0.99754155,0.009881736,-0.069377415,0.0088658,-0.9998492,-0.014935642,0.2567052461624145,-0.09702374523878096,-0.019167163085937133,0.14342897109619396,-0.014339541063721765,-0.01575223513884091,1.333694,-0.023444394,-0.038945977,0.027877808
0.0,0.0,0.0,0.0695146,-0.014283852,0.99747866,0.99754155,0.009881736,-0.069377415,0.0088658,-0.9998492,-0.014935642,0.34289650592803955,-0.03238030041456222,-0.06465699462890662,0.1444263087703532,-0.014429744860475968,-0.01599675893629124,1.3434259,-0.023444394,-0.038945977,0.028381348
0.0,0.0,0.0,0.0695146,-0.014283852,0.99747866,0.99754155,0.009881736,-0.069377415,0.0088658,-0.9998492,-0.014935642,0.3045892793655395,-0.1089947535395622,0.06462989501953054,0.14522712362332915,-0.014902569903871399,-0.015593625666512132,1.3519218,-0.026484592,-0.038945977,0.027893066
0.0,0.0,0.0,0.0695146,-0.014283852,0.99747866,0.99754155,0.009881736,-0.069377415,0.0088658,-0.9998492,-0.014935642,0.31895448932647696,-0.09223534191846847,0.01195745849609331,0.14609576045184489,-0.015289233763944384,-0.015455870245699103,1.3608087,-0.026484592,-0.038945977,0.027862549
0.0,0.0,0.0,0.0695146,-0.014283852,0.99747866,0.99754155,0.009881736,-0.069377415,0.0088658,-0.9998492,-0.014935642,0.3596559175491333,-0.1089947535395622,0.033505273437500094,0.14716356123733132,-0.015757761362822476,-0.015211064527283108,1.3708133,-0.029516473,-0.038945977,0.027816772
0.0,0.0,0.0,0.0695146,-0.014283852,0.99747866,0.99754155,0.009881736,-0.069377415,0.0088658,-0.9998492,-0.014935642,0.34289650592803955,-0.04435130871534346,-1.3549804688040012e-05,0.14814222596078488,-0.015900729099585082,-0.015135076953670131,1.3803673,-0.029516473,-0.038945977,0.027862549
0.0,0.0,0.0,0.0695146,-0.014283852,0.99747866,0.99754155,0.009881736,-0.069377415,0.0088658,-0.9998492,-0.014935642,0.280647262763977,-0.034774502074718466,-0.021561364746094824,0.14880475114480085,-0.01599509796446075,-0.015167208392632256,1.3881739,-0.029516473,-0.038945977,0.027816772
0.0,0.0,0.0,0.0695146,-0.014283852,0.99747866,0.99754155,0.009881736,-0.069377415,0.0088658,-0.9998492,-0.014935642,0.3045892793655395,-0.04435130871534346,-0.05986859130859479,0.14958367378590456,-0.016136879018215165,-0.01539071530721207,1.3966559,-0.029516473,-0.038945977,0.02784729
0.0,0.0,0.0,0.0695146,-0.014283852,0.99747866,0.99754155,0.009881736,-0.069377415,0.0088658,-0.9998492,-0.014935642,0.3548675142288208,-0.0036498804926872186,-0.01677296142578122,0.15061009298811914,-0.016074444025587525,-0.015397626537804916,1.4065272,-0.029516473,-0.038945977,0.027816772
0.0,0.0,0.0,0.0695146,-0.014283852,0.99747866,0.99754155,0.009881736,-0.069377415,0.0088658,-0.9998492,-0.014935642,0.30219507770538323,-0.06350492199659347,0.01914006347656283,0.15136801791170545,-0.016311596415442553,-0.015224938087733078,1.4149332,-0.029516473,-0.038945977,0.027816772
0.0,0.0,0.0,0.0695146,-0.014283852,0.99747866,0.99754155,0.009881736,-0.069377415,0.0088658,-0.9998492,-0.014935642,0.37402112751007077,-0.08505273693799972,-0.028743969726562568,0.15248128345969728,-0.016655302118055337,-0.015292533245927225,1.4253601,-0.029516473,-0.038945977,0.027877808
0.0,0.0,0.0,0.0695146,-0.014283852,0.99747866,0.99754155,0.009881736,-0.069377415,0.0088658,-0.9998492,-0.014935642,0.280647262763977,-0.14969618176221844,-0.11972363281249976,0.15312211335621867,-0.017320506516276153,-0.01581468874376009,1.433154,-0.033673685,-0.04227082,0.027770996
0.0,0.0,0.0,0.0695146,-0.014283852,0.99747866,0.99754155,0.009881736,-0.069377415,0.0088658,-0.9998492,-0.014935642,0.29740667438507074,-0.09223534191846847,-0.07183959960937614,0.15384353616136293,-0.017695080693287117,-0.016094813298088168,1.4414223,-0.033673685,-0.04227082,0.027801514
0.0,0.0,0.0,0.0695146,-0.014283852,0.99747866,0.99754155,0.009881736,-0.069377415,0.0088658,-0.9998492,-0.014935642,0.32853129596710196,-0.053928115355968476,-0.05029178466796935,0.1547169749603916,-0.017876245866600523,-0.01626579815493757,1.450551,-0.033673685,-0.04227082,0.027786255
0.0,0.0,0.0,0.0695146,-0.014283852,0.99747866,0.99754155,0.009881736,-0.069377415,0.0088658,-0.9998492,-0.014935642,0.376415329170227,-0.037168703734874714,0.033505273437500094,0.1558254667314408,-0.017972708155941892,-0.016016942796975384,1.4610159,-0.033673685,-0.04227082,0.027801514
0.0,0.0,0.0,0.0695146,-0.014283852,0.99747866,0.99754155,0.009881736,-0.069377415,0.0088658,-0.9998492,-0.014935642,0.37402112751007077,-0.0802643336176872,0.004774853515623789,0.15691644503533395,-0.01828416628325062,-0.01591298381541239,1.47142,-0.033673685,-0.04227082,0.027816772
0.0,0.0,0.0,0.0695146,-0.014283852,0.99747866,0.99754155,0.009881736,-0.069377415,0.0088658,-0.9998492,-0.014935642,0.3045892793655395,-0.11138895519971848,0.03589947509765601,0.157654809206985,-0.018749690227832957,-0.015653921520847047,1.4798741,-0.036765367,-0.04227082,0.027755737
0.0,0.0,0.0,0.0695146,-0.014283852,0.99747866,0.99754155,0.009881736,-0.069377415,0.0088658,-0.9998492,-0.014935642,0.24473423786163329,0.18309784899950027,0.1747631713867186,0.15809020635025822,-0.01774045253169629,-0.014701836056309219,1.4866781,-0.03167497,-0.03741214,0.027801514
0.0,0.0,0.027012631,0.06950387,-0.014335967,0.99747866,0.9975487,0.00913382,-0.069377415,0.008116155,-0.9998556,-0.014935642,0.0030088599205017053,0.03987793521881104,-0.11972363281249976,0.15731479961810943,-0.017452360592943757,-0.015226945040090171,1.4866781,-0.03167497,-0.04073516,0.027755737
0.0,0.0,0.0,0.06950387,-0.014335967,0.99747866,0.9975487,0.00913382,-0.069377415,0.008116155,-0.9998556,-0.014935642,0.33580289068222036,0.5594196954727173,0.169974768066405,0.15820724007342998,-0.014568000312615452,-0.014300936474557695,1.496014,-0.016122255,-0.036009602,0.027801514
-0.14995041,0.0,0.10282121,0.0694567,-0.018690413,0.9974099,0.9975711,0.006572756,-0.06934469,0.005259607,-0.9998038,-0.01910152,0.6450461497306823,0.09274828443527222,0.5655883392333987,0.16064143462171623,-0.014031418888876013,-0.011401490096017913,1.5139375,-0.016122255,-0.02029402,0.027786255
-0.12756757,-0.405829,-0.03986945,0.08074034,-0.022146836,0.9964891,0.9967163,0.007945437,-0.0805821,0.0061328607,-0.9997232,-0.022715611,-1.7972397259712218,-2.0644940917253494,3.0967129592895493,0.15085202881875154,-0.02428373225305838,0.004139082150909924,1.4639167,-0.07358132,0.06589379,0.027832031
-0.05522301,-0.86654264,0.10175536,0.10467109,-0.023938488,0.9942188,0.9945032,0.0052691707,-0.10457409,0.0027353263,-0.9996996,-0.024358423,-1.543190528678894,0.6917247569799423,1.1929974182128902,0.1423818160312633,-0.020703689806893376,0.010083373831219825,1.4209901,-0.054339774,0.09907913,0.027816772
0.3204891,-0.8155151,0.3113281,0.12705211,-0.01607942,0.99176586,0.9918756,-0.004377012,-0.12713708,-0.006385332,-0.9998612,-0.015392699,-1.939483654975891,1.184399372792244,0.7847771942138664,0.13197248867622752,-0.014678174493897689,0.013956842933133057,1.3669808,-0.021357462,0.12093305,0.02784729
0.59681064,-0.35253653,0.34623468,0.13669153,-0.0008926429,0.99061346,0.99048305,-0.01611447,-0.13668802,-0.016085312,-0.9998698,0.0013185283,-1.224547234725952,-0.5265043820671736,-0.005329389953613983,0.1251898900592166,-0.017237305531764068,0.013860411768699323,1.3329178,-0.036003113,0.12093305,0.027816772
0.8030526,0.07220467,0.28548124,0.13473792,0.020623961,0.99066687,0.9905851,-0.02724623,-0.1341596,-0.024225108,-0.999416,0.024100848,-2.163632558631897,-1.0760404178619383,-0.5947455032348641,0.11374577781576103,-0.02253132109341494,0.010817382193681505,1.271412,-0.066591844,0.104026146,0.028427124
0.40908784,0.36478046,0.03194219,0.12467012,0.031825222,0.99168795,0.9918726,-0.029602239,-0.12374335,-0.02541809,-0.999055,0.035257038,-1.9867674877166748,-0.3094128209114075,-1.1251491394042974,0.10324321148809885,-0.0239657285925049,0.00513754958569161,1.2159647,-0.07522704,0.072625116,0.027908325
-0.07973756,0.5892751,0.04633116,0.10840114,0.029467905,0.99367064,0.9937332,-0.030627608,-0.107499704,-0.027266031,-0.99909645,0.032603264,-2.206192610645294,1.2256657974481582,-0.906959675598145,0.09169603237743189,-0.017717570962301584,0.0005770634597724268,1.1544609,-0.04105816,0.047341067,0.027877808
-0.37870848,0.53944665,0.08363591,0.09349115,0.01872564,0.9954443,0.9951679,-0.031889368,-0.09286533,-0.030005202,-0.99931604,0.021616492,-2.0801514940261843,-0.3324605579137802,-0.3853670227050783,0.08083679474541382,-0.019291285897058977,-0.0013526569710518267,1.0964391,-0.050331503,0.036592,0.027893066
-0.2518723,0.41500863,-0.026946021,0.08197479,0.01180901,0.99656475,0.99619883,-0.030531127,-0.08158293,-0.02946291,-0.9994641,0.014266869,-1.2304741044044494,-0.730000034725666,-0.21988195037841862,0.0742802402496645,-0.022844829641202012,-0.0024453034380886606,1.0621926,-0.070648886,0.030472238,0.027832031
-0.24294583,0.23408061,-0.1198082,0.07544092,0.0053202654,0.9971364,0.99680614,-0.026671544,-0.075273655,-0.02619477,-0.99963015,0.007315364,-1.4444399555206298,0.2024824108302593,0.18957517547607416,0.06668663927081303,-0.021718193438844707,-0.0014852010435178462,1.0219247,-0.06500412,0.035757177,0.027877808
-0.2449443,0.13189226,-0.11807619,0.0717713,-0.0012402982,0.99742067,0.9971577,-0.022891767,-0.071780875,-0.02292183,-0.99973726,0.0004061656,-0.7795448277473449,0.7117867386683822,-0.5669558303833009,0.06245548193572224,-0.018050668778308573,-0.004312554190216761,1.0002165,-0.045182787,0.019968994,0.02784729
-0.23135471,0.254465,-0.19028753,0.06473579,-0.0072962833,0.9978761,0.997747,-0.017175376,-0.064853035,-0.017612163,-0.99982584,-0.0061680158,-0.2878496054649353,-0.2746809833347797,-0.4175034744262698,0.06070395649871896,-0.01933382035109093,-0.006378508791397027,0.99221385,-0.052819334,0.008361765,0.027801514
0.20351206,0.17226133,-0.4512875,0.06000179,-0.00085953576,0.9981983,0.9981856,-0.0049936343,-0.06000536,-0.005036296,-0.9999872,-0.0005583871,-0.34196493053436283,-0.10300524351149797,0.2837196182250974,0.058690612063553554,-0.019752177466892964,-0.004928018156314554,0.9826963,-0.05568618,0.016258258,0.027832031
0.07108021,0.3499918,-0.47913283,0.05027916,0.0018482669,0.9987339,0.9987009,0.008198174,-0.0502927,0.008280665,-0.9999647,0.0014336205,0.7011328001499175,0.8657387433543801,-1.5618627197265633,0.06190282300398537,-0.015324722862786598,-0.012712691664165799,1.0021888,-0.031617332,-0.02716389,0.027801514
0.0,0.595537,-0.46447742,0.03370834,0.0023906112,0.9994292,0.9992075,0.021099264,-0.033751357,0.021167822,-0.9997746,0.0016774223,0.31901094913482664,0.4278906430780887,-0.2891259017944341,0.06318836363463957,-0.013108646033082223,-0.01409475771481714,1.0110577,-0.019721325,-0.035202026,0.027801514
-0.10132102,0.42060435,-0.41464892,0.021999247,-0.000105565414,0.99975836,0.9992233,0.032703757,-0.021984044,0.032693446,-0.9994651,-0.0008250242,0.47357398400306694,0.02481745859934017,0.012208293151854122,0.06524029173648171,-0.012919015509920112,-0.013963242460483784,1.0242311,-0.019721325,-0.035202026,0.027816772
-0.14355531,0.35478812,-0.49418798,0.012126005,-0.0038762628,0.99991935,0.9988446,0.046551388,-0.011932542,0.046501286,-0.9989084,-0.0044363597,1.8507147682309149,-0.3844456818163395,-0.9492017166137696,0.07416766411895388,-0.014776648841452208,-0.01863943483125021,1.0758815,-0.03045056,-0.061692655,0.027908325
0.13902813,0.56889075,-0.5104422,-0.003664014,4.9274415e-05,0.9999937,0.998149,0.060706772,0.0036542425,0.060706116,-0.99815565,0.00027149217,2.1588305279672144,0.44012447834680785,-1.0910756881713874,0.08459097843819519,-0.012502143205510907,-0.024001616097950897,1.1359003,-0.018214433,-0.09202621,0.027801514
0.17526704,0.4377912,-0.38120788,-0.01586106,0.004818493,0.99986297,0.9973328,0.07132835,0.015477164,0.07124391,-0.9974413,0.0059368503,1.790715730857849,0.36226666427850723,0.550036776733398,0.09312160220029345,-0.010628299168090816,-0.021131424133794152,1.1856849,-0.008142871,-0.07673436,0.027801514
0.110649884,0.0,-0.26276532,-0.015907042,0.007776661,0.9998436,0.9967853,0.07865549,0.015246594,0.07852453,-0.9968716,0.009002701,2.6625864558696746,0.613068103325367,-1.1377151763916018,0.10596892646864035,-0.007509817155623528,-0.02671434289508319,1.2596682,0.008891996,-0.1083472,0.027786255
0.37777853,0.40608215,-0.177897,-0.027251493,0.01816409,0.9994639,0.99615306,0.08379605,0.025638308,0.08328535,-0.99631745,0.02037764,3.697585951089859,0.08878741204738616,-2.1808322692871096,0.12392701159174645,-0.0070283310096084795,-0.037484932527043324,1.3624103,0.008891996,-0.16894436,0.027786255
0.5539102,0.5314528,-0.24664432,-0.04216573,0.033287354,0.9985563,0.99507767,0.09110947,0.038981657,0.08968028,-0.9952844,0.03696503,2.8300685454845427,0.1453312491416931,0.9247910766601564,0.13745771926121042,-0.006266533108851971,-0.03267355248110733,1.440961,0.012925772,-0.1432761,0.027755737
-0.06974521,-0.19865444,-0.2517071,-0.036883846,0.03107787,0.9988366,0.9946174,0.097989604,0.033679187,0.09682886,-0.9947021,0.03452466,2.0296987383365632,-0.758113385772705,2.957538383483886,0.1469189243565872,-0.010025767372171236,-0.01772249280128236,1.4972968,-0.008116224,-0.06118744,0.027755737
-0.21230264,-0.6761552,-0.28128445,-0.018287567,0.02495389,0.99952173,0.9942834,0.105634466,0.0155544635,0.105195746,-0.9940919,0.026742894,1.806050064229965,-0.6139540688991547,2.336546565246582,0.1552145800559541,-0.013045408879806153,-0.005951147511043036,1.5475904,-0.02521318,0.0038790512,0.02784729
-0.353661,-0.8071215,-0.061053216,0.0041019637,0.01511641,0.9998778,0.9942133,0.10727296,-0.0057005193,0.107346,-0.99411476,0.014588774,1.778393540906906,-0.10620504276752472,-0.4412847808837892,0.16333047486020885,-0.013511207049244746,-0.008127815677906767,1.5970052,-0.028164221,-0.0083826,0.027786255
-0.46997184,-0.52147377,0.034473583,0.018591262,0.0020546531,0.99982554,0.9941389,0.106480345,-0.018704353,0.10650018,-0.99431264,6.288103e-05,1.5864093999147415,-0.03379841633439064,0.5766838928222651,0.17044586948548152,-0.013612643095670476,-0.0052037571354059085,1.6410614,-0.028164221,0.0076324865,0.027770996
-0.108249046,-0.51441246,-0.03640544,0.03287994,-0.0009262338,0.9994594,0.993664,0.107562944,-0.03258962,0.1074746,-0.9941979,-0.004457152,1.6881815761089323,-0.29159405659884213,0.16552350463867072,0.17803454801859878,-0.015002550163186334,-0.004350120826535526,1.6879697,-0.036266528,0.012231764,0.027786255
-0.07041137,-0.27979228,-0.022282928,0.040820964,-0.0029010163,0.9991628,0.9933063,0.10826443,-0.040267374,0.10805696,-0.994118,-0.0073011788,1.5385305050373077,-0.6798374918609857,-2.0442593032836918,0.18483702780369232,-0.01832672487167533,-0.014549666738821307,1.7316587,-0.055571605,-0.04581826,0.028396606
-0.13223067,-0.32908782,0.042067762,0.049975164,-0.0066347206,0.99872893,0.99302346,0.107264705,-0.048977107,0.10680339,-0.99420834,-0.011949124,0.9478624075412749,0.4668236623585224,0.32720435180664076,0.18865215470238023,-0.01590097293552434,-0.012840896646093997,1.7580686,-0.04256471,-0.036701515,0.027862549
-0.18019392,-0.5265365,0.0,0.06457344,-0.011630613,0.9978457,0.992205,0.10754478,-0.06295492,0.10658088,-0.9941323,-0.018484607,1.7365972662925717,0.00547168647050858,2.6521157775878894,0.1963918802603312,-0.015794109638494175,0.0004838867250759205,1.8062956,-0.04256471,0.036950383,0.027770996
0.0,0.04316026,0.0,0.06337737,-0.011630613,0.99792236,0.99227977,0.10754478,-0.06176561,0.10660296,-0.9941323,-0.018356847,0.17591978616714476,-0.29380352104902263,0.4105078765869141,0.19628951978986525,-0.017184156695546817,0.0025340066743851117,1.8111811,-0.050723925,0.048350595,0.027770996
0.0,0.0,0.0,0.06337737,-0.011630613,0.99792236,0.99227977,0.10754478,-0.06176561,0.10660296,-0.9941323,-0.018356847,0.2333806260108947,-0.037623943412303906,0.1878471221923821,0.19647497532097039,-0.0172863556291306,0.0034605722519750965,1.817673,-0.050723925,0.053575896,0.027816772
0.0,-0.028518148,0.08177067,0.06414153,-0.0117754815,0.9978718,0.9924723,0.105289996,-0.06255198,0.10432933,-0.9943719,-0.01844042,0.2797160159111023,0.016249861979484567,-0.11340362396240344,0.19689118052392104,-0.017118674541087526,0.0028762512709032038,1.8254452,-0.050723925,0.050424833,0.027786255
0.0,0.0,0.023015695,0.06413398,-0.011816521,0.9978718,0.99253947,0.10465492,-0.06255198,0.10369302,-0.99443835,-0.018440418,0.1720395260810852,-0.42154869930744165,-0.005664549255371298,0.19676692225170686,-0.019140824664919297,0.002833547268271831,1.8302281,-0.062443618,0.050424833,0.027801514
0.0,0.0,0.0,0.06413398,-0.011816521,0.9978718,0.99253947,0.10465492,-0.06255198,0.10369303,-0.9944384,-0.01844042,0.18879893770217893,0.06208003604412079,0.10207452545165907,0.19672708232895922,-0.018734720361374097,0.0033297521591887673,1.835477,-0.062443618,0.05326266,0.027801514
0.0,0.0,0.0,0.06413398,-0.011816521,0.9978718,0.99253947,0.10465492,-0.06255198,0.10369303,-0.9944384,-0.01844042,0.28456700410842894,-0.16058071835041043,-0.020029759216308562,0.19716628193785657,-0.019443950351319277,0.0032129546023112808,1.8433884,-0.066908,0.05326266,0.027801514
0.0,0.0,0.0,0.06413398,-0.011816521,0.9978718,0.99253947,0.10465492,-0.06255198,0.10369303,-0.9944384,-0.01844042,0.3563930539131164,-0.1103024834871292,0.056584693908691364,0.19796241579773288,-0.019898243016998326,0.003479813298843181,1.8532968,-0.06997458,0.05326266,0.027801514
0.0,0.0,0.0,0.06413398,-0.011816521,0.9978718,0.99253947,0.10465492,-0.06255198,0.10369303,-0.9944384,-0.01844042,0.35399885225296013,-0.09354307186603544,-0.012847154235840819,0.19874259798000904,-0.02026646716124351,0.003398178461169761,1.8631546,-0.06997458,0.05326266,0.02784729
0.0,0.0,0.0,0.06413398,-0.011816521,0.9978718,0.99253947,0.10465492,-0.06255198,0.10369303,-0.9944384,-0.01844042,0.2678075924873352,-0.09833147518634794,-0.08467320404052714,0.19908792295254565,-0.020656792201369033,0.002957821548661277,1.8706083,-0.06997458,0.05326266,0.027832031
0.0,0.0,0.0,0.06413398,-0.011816521,0.9978718,0.99253947,0.10465492,-0.06255198,0.10369303,-0.9944384,-0.01844042,0.2965380124092102,-0.07199525692462921,-0.14213404388427797,0.19957517339982897,-0.020913484524985333,0.0022323622214965805,1.8788706,-0.06997458,0.04930244,0.027862549
0.0,0.0,0.0,0.06413398,-0.011816521,0.9978718,0.99253947,0.10465492,-0.06255198,0.10369303,-0.9944384,-0.01844042,0.27020179414749146,-0.11269668514728545,-0.022423960876464477,0.19992830650356727,-0.021372400528096833,0.0021090806060067753,1.8863826,-0.07310772,0.04930244,0.027801514
0.0,0.0,0.0,0.06413398,-0.011816521,0.9978718,0.99253947,0.10465492,-0.06255198,0.10369303,-0.9944384,-0.01844042,0.27499019746780395,-0.11269668514728545,-0.11340362396240344,0.20030361595838847,-0.021829021951192778,0.0015315170831647238,1.8940529,-0.07625118,0.046139266,0.027893066
0.0,0.0,0.0,0.06413398,-0.011816521,0.9978718,0.99253947,0.10465492,-0.06255198,0.10369303,-0.9944384,-0.01844042,0.3085090207099914,-0.08875466854572295,-0.015241355895996733,0.2008446429821465,-0.02216365018416543,0.0014476527182689166,1.9026769,-0.07625118,0.046139266,0.027954102
0.0,0.0,0.0,0.06413398,-0.011816521,0.9978718,0.99253947,0.10465492,-0.06255198,0.10369303,-0.9944384,-0.01844042,0.34921044893264763,-0.0576300469636917,-0.09664421234130849,0.201586472011899,-0.02234098216806306,0.0009571933929710295,1.9124388,-0.07625118,0.046139266,0.027954102
0.0,0.0,0.0,0.06413398,-0.011816521,0.9978718,0.99253947,0.10465492,-0.06255198,0.10369303,-0.9944384,-0.01844042,0.33005683565139765,-0.06481265194416044,-0.03678917083740352,0.2022288238300965,-0.022553340516943545,0.0007684615718191567,1.92164,-0.07625118,0.046139266,0.027877808
0.0,0.0,0.0,0.06413398,-0.011816521,0.9978718,0.99253947,0.10465492,-0.06255198,0.10369303,-0.9944384,-0.01844042,0.25583658418655386,-0.09833147518634794,-0.08467320404052714,0.20249686263187877,-0.02293223119029057,0.0003412532437574253,1.9287683,-0.07625118,0.046139266,0.027862549
0.0,0.0,0.0,0.06413398,-0.011816521,0.9978718,0.99253947,0.10465492,-0.06255198,0.10369303,-0.9944384,-0.01844042,0.33005683565139765,-0.11748508846759795,-0.053548582458496696,0.20313466249697637,-0.023404995476677105,7.180406524615469e-05,1.9379444,-0.07951744,0.046139266,0.027801514
