InpGyro_1X,InpGyro_1Y,InpGyro_1Z,InpGyro_2X,InpGyro_2Y,InpGyro_2Z,GyroX,GyroY,GyroZ,ExpGravityX,ExpGravityY,ExpGravityZ,ExpOxX,ExpOxY,ExpOxZ,ExpOyX,ExpOyY,ExpOyZ,AccX,AccY,AccZ,AccNoiseX,AccNoiseY,AccNoiseZ,ExpSpeedX,ExpSpeedY,ExpSpeedZ,dT
0.0007194467,0.0028271666,0.0008739969,0.003048338,0.007359693,-0.015790567,0.0,0.0,0.0,0.008847373,-0.006656031,0.9999387,0.9999609,5.8890695e-05,-0.008847177,0.0,-0.9999779,-0.006656292,0.03973178,-0.0077691935,0.067144394,0.00019865889,-3.8845967e-05,0.00033572197,0.0,0.0,0.0,0.008743286
0.001785297,-0.0029017765,0.0006075343,0.0013163332,0.0057609174,-0.01605703,0.0,0.0,0.0,0.008847373,-0.006656031,0.9999387,0.9999609,5.8890695e-05,-0.008847177,0.0,-0.9999779,-0.006656292,-0.04645948,-0.010163393,-0.026228905,-3.4631812e-05,-8.94687e-05,0.00020289882,0.0,0.0,0.0,0.027786255
-0.002877796,-0.000103920465,0.0012736907,-0.00014921091,0.0057609174,-0.016989648,0.0,0.0,0.0,0.008847373,-0.006656031,0.9999387,0.9999609,5.8890695e-05,-0.008847177,0.0,-0.9999779,-0.006656292,-0.044065278,-0.0005865842,0.021655083,-0.00025478503,-9.195428e-05,0.00031015975,0.0,0.0,0.0,0.02468872
0.0021849908,0.0016280856,-5.86221e-05,0.0025154129,0.0077593867,-0.016589954,0.0,0.0,0.0,0.008847373,-0.006656031,0.9999387,0.9999609,5.8890695e-05,-0.008847177,0.0,-0.9999779,-0.006656292,0.03494338,-0.023331504,-0.042988777,-7.879421e-05,-0.00020815202,9.3665076e-05,0.0,0.0,0.0,0.024734497
-0.00087932684,0.00016254198,-0.0013909345,0.0006501768,0.008425541,-0.012326554,0.0,0.0,0.0,0.008847373,-0.006656031,0.9999387,0.9999609,5.8890695e-05,-0.008847177,0.0,-0.9999779,-0.006656292,-0.040473975,0.011384424,0.034823418,-0.00028077012,-0.00015018915,0.00026731385,0.0,0.0,0.0,0.024658203
0.0007194467,-0.000103920465,-0.002856478,-0.00014921091,0.0066935364,-0.013125942,0.0,0.0,0.0,0.008847373,-0.006656031,0.9999387,0.9999609,5.8890695e-05,-0.008847177,0.0,-0.9999779,-0.006656292,0.040928878,-0.024528604,0.0132751465,-7.472189e-05,-0.00027208123,0.00033235303,0.0,0.0,0.0,0.02458191
0.0005862154,-0.0003703829,0.00020784047,0.00091663934,0.0053612236,-0.014058561,0.0,0.0,0.0,0.008847373,-0.006656031,0.9999387,0.9999609,5.8890695e-05,-0.008847177,0.0,-0.9999779,-0.006656292,0.00022745132,0.05208585,0.014472008,-7.321103e-05,-1.029158e-05,0.0004030513,0.0,0.0,0.0,0.02456665
-0.00061286613,-0.0005036142,-0.0005915472,0.00011725165,0.009224929,-0.015390873,0.0,0.0,0.0,0.008847373,-0.006656031,0.9999387,0.9999609,5.8890695e-05,-0.008847177,0.0,-0.9999779,-0.006656292,-0.008152254,0.013778623,0.003698349,-0.00011360624,5.8652997e-05,0.00041952776,0.0,0.0,0.0,0.024551392
0.002318222,0.00016254198,-0.0033894032,0.0011831019,0.011623092,-0.015524104,0.0,0.0,0.0,0.008847373,-0.006656031,0.9999387,0.9999609,5.8890695e-05,-0.008847177,0.0,-0.9999779,-0.006656292,0.015789762,-0.058047425,0.015669823,-3.4089397e-05,-0.00023187738,0.0004957792,0.0,0.0,0.0,0.024658203
-0.0015454832,0.00096192944,0.0007407656,0.0027818754,0.006560305,-0.0137920985,0.0,0.0,0.0,0.008847373,-0.006656031,0.9999387,0.9999609,5.8890695e-05,-0.008847177,0.0,-0.9999779,-0.006656292,-0.0045609474,0.028143834,0.07432747,-5.6723686e-05,-8.999882e-05,0.00086493767,0.0,0.0,0.0,0.025619507
0.00045298412,-0.0030350077,0.0008739969,0.0033148006,0.0072264615,-0.012992711,0.0,0.0,0.0,0.008847373,-0.006656031,0.9999387,0.9999609,5.8890695e-05,-0.008847177,0.0,-0.9999779,-0.006656292,-0.017729059,-0.0077691935,0.061159134,-0.00014508536,-0.0001283948,0.0011664086,0.0,0.0,0.0,0.024719238
-0.00074609555,0.00029577326,-0.0025900155,0.0018492583,0.006427074,-0.014325023,0.0,0.0,0.0,0.008847373,-0.006656031,0.9999387,0.9999609,5.8890695e-05,-0.008847177,0.0,-0.9999779,-0.006656292,-0.04765658,0.005398918,-0.027425766,-0.00038264284,-0.00010075823,0.0010234477,0.0,0.0,0.0,0.02468872
0.00018652156,0.00096192944,-0.0015241657,-0.0002824422,0.0034959856,-0.011660399,0.0,0.0,0.0,0.008847373,-0.006656031,0.9999387,0.9999609,5.8890695e-05,-0.008847177,0.0,-0.9999779,-0.006656292,0.024169467,0.017369926,0.024048805,-0.0002598823,-1.3404817e-05,0.0011385744,0.0,0.0,0.0,0.025619507
-0.0020784084,0.0024274732,-0.0011244724,0.003048338,0.0070932303,-0.015524104,0.0,0.0,0.0,0.008847373,-0.006656031,0.9999387,0.9999609,5.8890695e-05,-0.008847177,0.0,-0.9999779,-0.006656292,-0.008152254,0.031735137,-0.028623581,-0.0002993442,0.0001453379,0.0009897638,0.0,0.0,0.0,0.025253296
0.0005862154,0.0016280856,-0.0005915472,0.0041141883,0.007359693,-0.014591485,0.0,0.0,0.0,0.008847373,-0.006656031,0.9999387,0.9999609,5.8890695e-05,-0.008847177,0.0,-0.9999779,-0.006656292,-0.026108764,0.017369926,-0.06333923,-0.00042839127,0.00023146083,0.0006681188,0.0,0.0,0.0,0.025131226
-0.0019451771,-0.0015694641,0.0006075343,0.0022489522,0.0068267677,-0.012326554,0.0,0.0,0.0,0.008847373,-0.006656031,0.9999387,0.9999609,5.8890695e-05,-0.008847177,0.0,-0.9999779,-0.006656292,-0.002166748,-0.040090915,0.059962273,-0.00043708304,2.9848961e-05,0.0009645896,0.0,0.0,0.0,0.025131226
-0.0010125581,0.000695467,0.0015401524,0.001716027,0.005094761,-0.014724717,0.0,0.0,0.0,0.008847373,-0.006656031,0.9999387,0.9999609,5.8890695e-05,-0.008847177,0.0,-0.9999779,-0.006656292,0.058885396,-0.023331504,-0.0070753098,-0.00014047066,-8.69578e-05,0.0009243901,0.0,0.0,0.0,0.024887085
-0.0018119458,2.9310817e-05,0.00233954,0.0013163332,0.0094913915,-0.014058561,0.0,0.0,0.0,0.008847373,-0.006656031,0.9999387,0.9999609,5.8890695e-05,-0.008847177,0.0,-0.9999779,-0.006656292,0.052899882,0.040114842,-0.0058784485,0.00012473109,0.0001140512,0.00089037593,0.0,0.0,0.0,0.02470398
-0.0016787145,0.0025607045,0.0010072282,0.0034480318,0.0052279923,-0.014991179,0.0,0.0,0.0,0.008847373,-0.006656031,0.9999387,0.9999609,5.8890695e-05,-0.008847177,0.0,-0.9999779,-0.006656292,0.018183962,0.030538036,0.016866684,0.00021502725,0.00026617112,0.00097025745,0.0,0.0,0.0,0.024642944
-0.0031442586,-0.0022356203,-0.0011244724,0.0022489522,0.004561836,-0.016589954,0.0,0.0,0.0,0.008847373,-0.006656031,0.9999387,0.9999609,5.8890695e-05,-0.008847177,0.0,-0.9999779,-0.006656292,-0.036882672,-0.03649961,0.038414,2.9538758e-05,8.2342216e-05,0.0011574762,0.0,0.0,0.0,0.024642944
-0.0026113335,-0.0010365391,0.001406922,0.0005169455,0.006427074,-0.0137920985,0.0,0.0,0.0,0.008847373,-0.006656031,0.9999387,0.9999609,5.8890695e-05,-0.008847177,0.0,-0.9999779,-0.006656292,-0.035685573,-0.016148899,0.03602028,-0.00014903679,1.1860175e-06,0.0013317902,0.0,0.0,0.0,0.02470398
-0.0020784084,-0.0006368454,-0.0024567842,0.0019824896,0.00602738,-0.014591485,0.0,0.0,0.0,0.008847373,-0.006656031,0.9999387,0.9999609,5.8890695e-05,-0.008847177,0.0,-0.9999779,-0.006656292,-0.051247884,-0.019740198,0.0048952103,-0.00040453102,-9.75209e-05,0.0013496074,0.0,0.0,0.0,0.024765015
0.0005862154,-0.0017026954,0.00020784047,0.0018492583,0.008825235,-0.015923798,0.0,0.0,0.0,0.008847373,-0.006656031,0.9999387,0.9999609,5.8890695e-05,-0.008847177,0.0,-0.9999779,-0.006656292,0.019381069,-0.0077691935,0.034823418,-0.00030560303,-0.00013587927,0.0015169764,0.0,0.0,0.0,0.024887085
0.0005862154,-0.0027685454,0.003272159,0.00011725165,0.0085587725,-0.015390873,0.0,0.0,0.0,0.008847373,-0.006656031,0.9999387,0.9999609,5.8890695e-05,-0.008847177,0.0,-0.9999779,-0.006656292,-0.017729059,-0.05206192,0.028837204,-0.0003927203,-0.00039550944,0.0016535774,0.0,0.0,0.0,0.024642944
0.0020517595,-0.0009033079,-0.00045831595,0.00091663934,0.007892616,-0.01725611,0.0,0.0,0.0,0.008847373,-0.006656031,0.9999387,0.9999609,5.8890695e-05,-0.008847177,0.0,-0.9999779,-0.006656292,0.019381069,-0.0029807873,-0.014258385,-0.00029385136,-0.00040843582,0.0015740176,0.0,0.0,0.0,0.025146484
-0.00034640357,-0.00023715169,0.0028724652,0.0025154129,0.0068267677,-0.014991179,0.0,0.0,0.0,0.008847373,-0.006656031,0.9999387,0.9999609,5.8890695e-05,-0.008847177,0.0,-0.9999779,-0.006656292,-0.034488473,0.011384424,-0.031017303,-0.0004648245,-0.00034947152,0.001411061,0.0,0.0,0.0,0.02470398
0.0028511472,-0.0027685454,0.0022063088,0.0038477257,0.004561836,-0.01619026,0.0,0.0,0.0,0.008847373,-0.006656031,0.9999387,0.9999609,5.8890695e-05,-0.008847177,0.0,-0.9999779,-0.006656292,0.028957874,0.020961229,-0.009469986,-0.00031771103,-0.00024291802,0.0013566557,0.0,0.0,0.0,0.024765015
-0.0019451771,0.00082869816,-0.00032508466,0.0026486441,0.0070932303,-0.016323492,0.0,0.0,0.0,0.008847373,-0.006656031,0.9999387,0.9999609,5.8890695e-05,-0.008847177,0.0,-0.9999779,-0.006656292,-0.0045609474,0.011384424,-0.014258385,-0.00033892723,-0.00018478131,0.0012785805,0.0,0.0,0.0,0.024719238
0.0019185282,0.0013616233,7.460918e-05,-1.5979633e-05,0.0076261554,-0.013658867,0.0,0.0,0.0,0.008847373,-0.006656031,0.9999387,0.9999609,5.8890695e-05,-0.008847177,0.0,-0.9999779,-0.006656292,0.006212957,-0.067624226,0.018063545,-0.0003061678,-0.00052197854,0.0013625053,0.0,0.0,0.0,0.024673462
-0.0019451771,-0.0009033079,0.00034107175,0.0011831019,0.0052279923,-0.014191791,0.0,0.0,0.0,0.008847373,-0.006656031,0.9999387,0.9999609,5.8890695e-05,-0.008847177,0.0,-0.9999779,-0.006656292,-0.011743553,-0.0029807873,-0.03820038,-0.00036335475,-0.0005342726,0.0011646908,0.0,0.0,0.0,0.024673462
0.00045298412,0.0005622357,-0.00045831595,0.00078340806,0.00602738,-0.013525636,0.0,0.0,0.0,0.008847373,-0.006656031,0.9999387,0.9999609,5.8890695e-05,-0.008847177,0.0,-0.9999779,-0.006656292,0.0038187578,-0.04607642,0.019260406,-0.00034244417,-0.0007619833,0.0012551694,0.0,0.0,0.0,0.024673462
-0.00034640357,0.00096192944,-0.0005915472,0.00091663934,0.008825235,-0.01818873,0.0,0.0,0.0,0.008847373,-0.006656031,0.9999387,0.9999609,5.8890695e-05,-0.008847177,0.0,-0.9999779,-0.006656292,-0.056036286,0.0042018183,0.016866684,-0.00062091334,-0.0007371643,0.001333227,0.0,0.0,0.0,0.024749756
-0.0019451771,0.00016254198,-0.0008580098,0.00025048293,0.007359693,-0.010461317,0.0,0.0,0.0,0.008847373,-0.006656031,0.9999387,0.9999609,5.8890695e-05,-0.008847177,0.0,-0.9999779,-0.006656292,0.008607157,-0.019740198,0.00010681152,-0.000574773,-0.00083217944,0.001327095,0.0,0.0,0.0,0.02470398
0.00018652156,-0.000103920465,-0.001657397,0.0013163332,0.009224929,-0.017389342,0.0,0.0,0.0,0.008847373,-0.006656031,0.9999387,0.9999609,5.8890695e-05,-0.008847177,0.0,-0.9999779,-0.006656292,0.0050158575,-0.012557592,0.030035019,-0.0005468198,-0.0008908065,0.0014706346,0.0,0.0,0.0,0.024673462
-0.00087932684,0.0013616233,0.0028724652,0.0025154129,0.006959999,-0.01605703,0.0,0.0,0.0,0.008847373,-0.006656031,0.9999387,0.9999609,5.8890695e-05,-0.008847177,0.0,-0.9999779,-0.006656292,0.024169467,-0.0077691935,-0.052565575,-0.0004232384,-0.00092519843,0.0012004536,0.0,0.0,0.0,0.024642944
-0.002877796,-0.00023715169,0.0010072282,0.0019824896,0.008692004,-0.016723186,0.0,0.0,0.0,0.008847373,-0.006656031,0.9999387,0.9999609,5.8890695e-05,-0.008847177,0.0,-0.9999779,-0.006656292,0.033746272,-0.037696708,-0.0118637085,-0.00025239086,-0.001109056,0.0011351329,0.0,0.0,0.0,0.024627686
0.0009859093,-0.0022356203,7.460918e-05,0.00078340806,0.008692004,-0.015257642,0.0,0.0,0.0,0.008847373,-0.006656031,0.9999387,0.9999609,5.8890695e-05,-0.008847177,0.0,-0.9999779,-0.006656292,0.021775268,-0.026922803,0.046793938,-0.00014225258,-0.0012381247,0.0013634268,0.0,0.0,0.0,0.025268555
-0.003810415,0.00082869816,0.0019398462,0.0005169455,0.007359693,-0.0137920985,0.0,0.0,0.0,0.008847373,-0.006656031,0.9999387,0.9999609,5.8890695e-05,-0.008847177,0.0,-0.9999779,-0.006656292,-0.021320362,0.017369926,-0.0058784485,-0.00024814313,-0.0011450844,0.0013272174,0.0,0.0,0.0,0.024734497
0.00045298412,-0.00077007664,0.0031389277,0.0026486441,0.0057609174,-0.016323492,0.0,0.0,0.0,0.008847373,-0.006656031,0.9999387,0.9999609,5.8890695e-05,-0.008847177,0.0,-0.9999779,-0.006656292,-0.0153348595,-0.020937297,0.03123188,-0.0003235767,-0.0012440454,0.0014767407,0.0,0.0,0.0,0.024642944
0.0012523718,-0.00077007664,0.0012736907,0.00078340806,0.00602738,-0.016989648,0.0,0.0,0.0,0.008847373,-0.006656031,0.9999387,0.9999609,5.8890695e-05,-0.008847177,0.0,-0.9999779,-0.006656292,-0.020123262,0.01976413,0.009683609,-0.00042257513,-0.0011390046,0.0015177751,0.0,0.0,0.0,0.024642944
0.0035173036,-0.0018359266,-0.0011244724,0.00078340806,0.0061606113,-0.015524104,0.0,0.0,0.0,0.008847373,-0.006656031,0.9999387,0.9999609,5.8890695e-05,-0.008847177,0.0,-0.9999779,-0.006656292,0.0038187578,0.029340936,0.016866684,-0.00040136845,-0.0009866048,0.0015945197,0.0,0.0,0.0,0.024642944
-0.0030110274,0.0005622357,-0.0011244724,-0.0008153673,0.006560305,-0.011660399,0.0,0.0,0.0,0.008847373,-0.006656031,0.9999387,0.9999609,5.8890695e-05,-0.008847177,0.0,-0.9999779,-0.006656292,0.013395563,0.014975727,0.04200554,-0.0003323838,-0.0009067932,0.0017965748,0.0,0.0,0.0,0.024658203
0.000852678,0.002294242,-0.00045831595,0.0013163332,0.005627686,-0.012459786,0.0,0.0,0.0,0.008847373,-0.006656031,0.9999387,0.9999609,5.8890695e-05,-0.008847177,0.0,-0.9999779,-0.006656292,0.03733758,0.053282954,0.019260406,-0.00014403398,-0.0006358445,0.001883894,0.0,0.0,0.0,0.024780273
-0.00021317229,-0.0027685454,-0.0007247785,0.0033148006,0.0085587725,-0.015657336,0.0,0.0,0.0,0.008847373,-0.006656031,0.9999387,0.9999609,5.8890695e-05,-0.008847177,0.0,-0.9999779,-0.006656292,-0.0033638477,0.0006105155,-0.004681587,-0.00016013304,-0.00062961265,0.0018510665,0.0,0.0,0.0,0.024673462
-7.9941005e-05,0.000695467,0.00047430303,-0.00068213604,0.008159079,-0.012459786,0.0,0.0,0.0,0.008847373,-0.006656031,0.9999387,0.9999609,5.8890695e-05,-0.008847177,0.0,-0.9999779,-0.006656292,0.03853468,-0.022134397,0.027640343,3.3341e-05,-0.0007371366,0.0019800127,0.0,0.0,0.0,0.024627686
0.0013856031,0.00016254198,-0.00032508466,0.0013163332,0.0062938426,-0.016723186,0.0,0.0,0.0,0.008847373,-0.006656031,0.9999387,0.9999609,5.8890695e-05,-0.008847177,0.0,-0.9999779,-0.006656292,0.028957874,-0.014951799,-0.0070753098,0.00017796365,-0.00080820994,0.0019347363,0.0,0.0,0.0,0.024642944
-0.0026113335,-0.0006368454,0.0038050842,0.0013163332,0.0077593867,-0.015257642,0.0,0.0,0.0,0.008847373,-0.006656031,0.9999387,0.9999609,5.8890695e-05,-0.008847177,0.0,-0.9999779,-0.006656292,-0.002166748,0.013778623,-0.0058784485,0.00016624009,-0.00073527574,0.0018956704,0.0,0.0,0.0,0.024642944
-0.0012790207,-0.0011697704,-0.0005915472,0.0003837142,0.004695067,-0.0137920985,0.0,0.0,0.0,0.008847373,-0.006656031,0.9999387,0.9999609,5.8890695e-05,-0.008847177,0.0,-0.9999779,-0.006656292,-0.022517465,-0.008966293,0.003698349,5.282156e-05,-0.0007764308,0.0019046839,0.0,0.0,0.0,0.024673462
-0.00087932684,0.001228392,0.0006075343,0.00025048293,0.007492924,-0.016723186,0.0,0.0,0.0,0.008847373,-0.006656031,0.9999387,0.9999609,5.8890695e-05,-0.008847177,0.0,-0.9999779,-0.006656292,0.001424551,-0.028119903,-0.023835182,5.968021e-05,-0.00091314816,0.0017759847,0.0,0.0,0.0,0.025253296
0.00031975284,-0.0017026954,0.0024727713,0.0025154129,0.003629217,-0.014058561,0.0,0.0,0.0,0.008847373,-0.006656031,0.9999387,0.9999609,5.8890695e-05,-0.008847177,0.0,-0.9999779,-0.006656292,0.012198463,-0.012557592,-0.028623581,0.00012037413,-0.0009713704,0.0016239869,0.0,0.0,0.0,0.024673462
0.0005862154,0.000695467,0.00233954,0.003980957,0.008159079,-0.014058561,0.0,0.0,0.0,0.008847373,-0.006656031,0.9999387,0.9999609,5.8890695e-05,-0.008847177,0.0,-0.9999779,-0.006656292,0.021775268,0.0065960176,0.003698349,0.0002286486,-0.0009335334,0.0016343587,0.0,0.0,0.0,0.024612427
0.0007194467,0.0048256353,0.00034107175,0.001716027,0.0076261554,-0.01392533,0.0,0.0,0.0,0.008847373,-0.006656031,0.9999387,0.9999609,5.8890695e-05,-0.008847177,0.0,-0.9999779,-0.006656292,0.0026216507,-0.03290831,0.020458221,0.0002406136,-0.0010934073,0.001728478,0.0,0.0,0.0,0.024597168
-0.00047963485,0.00082869816,-0.0009912411,0.0011831019,0.007359693,-0.014591485,0.0,0.0,0.0,0.008847373,-0.006656031,0.9999387,0.9999609,5.8890695e-05,-0.008847177,0.0,-0.9999779,-0.006656292,-0.024911664,0.0006105155,0.016866684,0.00011485221,-0.0010848878,0.0018041692,0.0,0.0,0.0,0.024673462
0.0005862154,-0.0006368454,0.0007407656,-1.5979633e-05,0.0076261554,-0.013658867,0.0,0.0,0.0,0.008847373,-0.006656031,0.9999387,0.9999609,5.8890695e-05,-0.008847177,0.0,-0.9999779,-0.006656292,0.009804256,-0.004177887,0.040808678,0.00016329924,-0.0011003527,0.0019991917,0.0,0.0,0.0,0.024734497
-0.0020784084,0.001228392,-0.0005915472,0.0003837142,0.008159079,-0.014857948,0.0,0.0,0.0,0.008847373,-0.006656031,0.9999387,0.9999609,5.8890695e-05,-0.008847177,0.0,-0.9999779,-0.006656292,0.044520184,0.01018732,-0.0070753098,0.00038508367,-0.0010439144,0.0019538193,0.0,0.0,0.0,0.024673462
-0.0019451771,-0.0015694641,-0.0015241657,0.0013163332,0.008825235,-0.015390873,0.0,0.0,0.0,0.008847373,-0.006656031,0.9999387,0.9999609,5.8890695e-05,-0.008847177,0.0,-0.9999779,-0.006656292,-0.045262378,0.022158328,0.0072898865,0.00015684636,-0.0009279031,0.0019804996,0.0,0.0,0.0,0.024627686
-0.002344871,-0.0015694641,-0.0007247785,0.0010498706,0.005627686,-0.016589954,0.0,0.0,0.0,0.008847373,-0.006656031,0.9999387,0.9999609,5.8890695e-05,-0.008847177,0.0,-0.9999779,-0.006656292,0.052899882,0.0125815235,-0.03820038,0.00042056153,-0.00086035597,0.0017795952,0.0,0.0,0.0,0.024612427
0.0020517595,0.001228392,0.00020784047,0.0014495645,0.0066935364,-0.014325023,0.0,0.0,0.0,0.008847373,-0.006656031,0.9999387,0.9999609,5.8890695e-05,-0.008847177,0.0,-0.9999779,-0.006656292,0.014592662,-0.019740198,0.039611816,0.000491422,-0.0009547552,0.0019687563,0.0,0.0,0.0,0.024673462
-0.0020784084,0.00042900455,0.00020784047,0.005046807,0.008692004,-0.015524104,0.0,0.0,0.0,0.008847373,-0.006656031,0.9999387,0.9999609,5.8890695e-05,-0.008847177,0.0,-0.9999779,-0.006656292,0.0038187578,0.0030047186,-0.048974037,0.0005080587,-0.0009349578,0.0017140423,0.0,0.0,0.0,0.024673462
0.0011191405,0.0010951607,0.0010072282,0.0015827958,0.0070932303,-0.0128594795,0.0,0.0,0.0,0.008847373,-0.006656031,0.9999387,0.9999609,5.8890695e-05,-0.008847177,0.0,-0.9999779,-0.006656292,0.021775268,0.005398918,0.027640343,0.0006143947,-0.0009032885,0.0018436739,0.0,0.0,0.0,0.024734497
0.0007194467,0.001228392,0.0006075343,0.0027818754,0.010290779,-0.014058561,0.0,0.0,0.0,0.008847373,-0.006656031,0.9999387,0.9999609,5.8890695e-05,-0.008847177,0.0,-0.9999779,-0.006656292,0.011001363,-0.04966772,-0.017848969,0.0006663296,-0.0011471106,0.0017452107,0.0,0.0,0.0,0.025131226
0.0009859093,-0.000103920465,-0.00032508466,0.0035812631,0.008425541,-0.017389342,0.0,0.0,0.0,0.008847373,-0.006656031,0.9999387,0.9999609,5.8890695e-05,-0.008847177,0.0,-0.9999779,-0.006656292,-0.023714565,0.044903245,0.016866684,0.0005444251,-0.00091685884,0.0018208182,0.0,0.0,0.0,0.024673462
-0.002344871,-0.000103920465,0.00034107175,0.0014495645,0.007892616,-0.017522573,0.0,0.0,0.0,0.008847373,-0.006656031,0.9999387,0.9999609,5.8890695e-05,-0.008847177,0.0,-0.9999779,-0.006656292,0.03733758,-0.017345998,-0.06932449,0.0007283909,-0.0009990046,0.0014650917,0.0,0.0,0.0,0.024612427
-0.00034640357,0.00096192944,-0.0009912411,-0.0009485986,0.006959999,-0.013658867,0.0,0.0,0.0,0.008847373,-0.006656031,0.9999387,0.9999609,5.8890695e-05,-0.008847177,0.0,-0.9999779,-0.006656292,0.06965931,0.0125815235,-0.0070753098,0.0010730454,-0.0009311019,0.0014223898,0.0,0.0,0.0,0.024673462
-0.0030110274,0.0026939358,-0.0007247785,0.0025154129,0.009891085,-0.014458254,0.0,0.0,0.0,0.008847373,-0.006656031,0.9999387,0.9999609,5.8890695e-05,-0.008847177,0.0,-0.9999779,-0.006656292,0.042125985,0.0042018183,0.033625603,0.0012783101,-0.00090543734,0.0015834059,0.0,0.0,0.0,0.02470398
-0.0022116397,0.0005622357,-0.0019238596,0.00011725165,0.0068267677,-0.012459786,0.0,0.0,0.0,0.008847373,-0.006656031,0.9999387,0.9999609,5.8890695e-05,-0.008847177,0.0,-0.9999779,-0.006656292,0.03733758,0.013778623,-0.031017303,0.0014586064,-0.00083201705,0.0014204023,0.0,0.0,0.0,0.024658203
0.0020517595,-0.0013030017,0.0012736907,0.0006501768,0.007892616,-0.014191791,0.0,0.0,0.0,0.008847373,-0.006656031,0.9999387,0.9999609,5.8890695e-05,-0.008847177,0.0,-0.9999779,-0.006656292,-0.051247884,-0.0053749867,0.030035019,0.001195074,-0.0008547319,0.0015634754,0.0,0.0,0.0,0.024673462
0.0013856031,0.001228392,-0.0015241657,0.0010498706,0.008159079,-0.01619026,0.0,0.0,0.0,0.008847373,-0.006656031,0.9999387,0.9999609,5.8890695e-05,-0.008847177,0.0,-0.9999779,-0.006656292,-0.038079776,-0.014951799,-0.0058784485,0.0009986997,-0.00092521723,0.0015262658,0.0,0.0,0.0,0.024612427
-0.0020784084,0.0028271666,0.0015401524,0.0026486441,0.006427074,-0.011527168,0.0,0.0,0.0,0.008847373,-0.006656031,0.9999387,0.9999609,5.8890695e-05,-0.008847177,0.0,-0.9999779,-0.006656292,-0.0057580546,0.007793121,-0.019046783,0.0009649159,-0.0008816256,0.0014234005,0.0,0.0,0.0,0.024597168
-7.9941005e-05,0.0021610106,0.00034107175,0.0010498706,0.0062938426,-0.01605703,0.0,0.0,0.0,0.008847373,-0.006656031,0.9999387,0.9999609,5.8890695e-05,-0.008847177,0.0,-0.9999779,-0.006656292,-0.0153348595,0.0065960176,0.018063545,0.00088341703,-0.00084423734,0.0015066011,0.0,0.0,0.0,0.02468872
0.0009859093,-0.0027685454,-0.0017906283,0.00091663934,0.0062938426,-0.014857948,0.0,0.0,0.0,0.008847373,-0.006656031,0.9999387,0.9999609,5.8890695e-05,-0.008847177,0.0,-0.9999779,-0.006656292,0.052899882,-0.018543098,-0.0501709,0.0011434993,-0.00093273167,0.0012482136,0.0,0.0,0.0,0.024780273
0.001785297,0.0017613169,-0.0008580098,0.0010498706,0.007492924,-0.015923798,0.0,0.0,0.0,0.008847373,-0.006656031,0.9999387,0.9999609,5.8890695e-05,-0.008847177,0.0,-0.9999779,-0.006656292,-0.01294066,0.016172826,0.0048952103,0.0010730785,-0.0008472039,0.0012664486,0.0,0.0,0.0,0.024719238
0.001785297,-0.0031682388,-0.00032508466,0.0014495645,0.005094761,-0.014191791,0.0,0.0,0.0,0.008847373,-0.006656031,0.9999387,0.9999609,5.8890695e-05,-0.008847177,0.0,-0.9999779,-0.006656292,0.061279595,-0.0029807873,0.008486748,0.001374111,-0.00085787184,0.0013025501,0.0,0.0,0.0,0.025115967
-0.00074609555,0.00096192944,-0.0005915472,0.0011831019,0.0085587725,-0.014325023,0.0,0.0,0.0,0.008847373,-0.006656031,0.9999387,0.9999609,5.8890695e-05,-0.008847177,0.0,-0.9999779,-0.006656292,0.022972368,-0.012557592,-0.017848969,0.0014821023,-0.0009163704,0.0012067925,0.0,0.0,0.0,0.024642944
0.001785297,-0.0005036142,0.0007407656,0.0018492583,0.0057609174,-0.012593017,0.0,0.0,0.0,0.008847373,-0.006656031,0.9999387,0.9999609,5.8890695e-05,-0.008847177,0.0,-0.9999779,-0.006656292,-0.028502967,-0.017345998,0.0048952103,0.001332177,-0.0009985185,0.0012252347,0.0,0.0,0.0,0.02468872
0.00045298412,-0.0025020828,-0.00045831595,0.00078340806,0.009624623,-0.01712288,0.0,0.0,0.0,0.008847373,-0.006656031,0.9999387,0.9999609,5.8890695e-05,-0.008847177,0.0,-0.9999779,-0.006656292,-0.06441599,-0.0065720864,-0.020243645,0.001003436,-0.0010263864,0.0011178904,0.0,0.0,0.0,0.024749756
0.0009859093,0.0016280856,-0.0005915472,0.0037144944,0.006959999,-0.016323492,0.0,0.0,0.0,0.008847373,-0.006656031,0.9999387,0.9999609,5.8890695e-05,-0.008847177,0.0,-0.9999779,-0.006656292,0.015789762,-0.0017836876,0.03123188,0.0010773677,-0.0010301729,0.0012684603,0.0,0.0,0.0,0.024673462
0.0007194467,0.0018945482,0.0006075343,0.0003837142,0.005094761,-0.016323492,0.0,0.0,0.0,0.008847373,-0.006656031,0.9999387,0.9999609,5.8890695e-05,-0.008847177,0.0,-0.9999779,-0.006656292,-0.04765658,-0.0065720864,0.028837204,0.0008336979,-0.0010578824,0.0014063041,0.0,0.0,0.0,0.02468872
-0.00061286613,-0.00077007664,-0.00032508466,0.0005169455,0.0094913915,-0.011660399,0.0,0.0,0.0,0.008847373,-0.006656031,0.9999387,0.9999609,5.8890695e-05,-0.008847177,0.0,-0.9999779,-0.006656292,0.018183962,-0.018543098,0.061159134,0.0009204492,-0.0011453085,0.0017050683,0.0,0.0,0.0,0.024627686
0.00045298412,-0.0003703829,0.0010072282,0.0031815693,0.00602738,-0.014857948,0.0,0.0,0.0,0.008847373,-0.006656031,0.9999387,0.9999609,5.8890695e-05,-0.008847177,0.0,-0.9999779,-0.006656292,-0.029700067,-0.0005865842,0.012078285,0.00076734665,-0.0011425149,0.0017569343,0.0,0.0,0.0,0.024612427
0.0044499207,0.0014948543,-0.0012577032,0.0033148006,0.00935816,-0.016723186,0.0,0.0,0.0,0.008847373,-0.006656031,0.9999387,0.9999609,5.8890695e-05,-0.008847177,0.0,-0.9999779,-0.006656292,-0.002166748,-0.010163393,0.019260406,0.00075267616,-0.0011876192,0.0018444516,0.0,0.0,0.0,0.024673462
0.0024514534,0.0014948543,0.0010072282,0.0019824896,0.0052279923,-0.012992711,0.0,0.0,0.0,0.008847373,-0.006656031,0.9999387,0.9999609,5.8890695e-05,-0.008847177,0.0,-0.9999779,-0.006656292,-0.022517465,0.0042018183,-0.017848969,0.00063632545,-0.0011606719,0.0017459845,0.0,0.0,0.0,0.024765015
-0.0012790207,-0.0022356203,-0.0009912411,0.00011725165,0.0062938426,-0.013392405,0.0,0.0,0.0,0.008847373,-0.006656031,0.9999387,0.9999609,5.8890695e-05,-0.008847177,0.0,-0.9999779,-0.006656292,0.011001363,0.026946735,-0.019046783,0.00068815064,-0.001020135,0.0016420208,0.0,0.0,0.0,0.024673462
-0.0035439525,-0.0005036142,-0.0011244724,0.0021157209,0.0076261554,-0.01725611,0.0,0.0,0.0,0.008847373,-0.006656031,0.9999387,0.9999609,5.8890695e-05,-0.008847177,0.0,-0.9999779,-0.006656292,-0.0045609474,-0.004177887,-0.0010900497,0.00066190516,-0.0010359238,0.0016283605,0.0,0.0,0.0,0.02508545
-0.0018119458,-0.00077007664,-0.0021903221,0.0005169455,0.009624623,-0.015390873,0.0,0.0,0.0,0.008847373,-0.006656031,0.9999387,0.9999609,5.8890695e-05,-0.008847177,0.0,-0.9999779,-0.006656292,0.019381069,0.01018732,-0.020243645,0.000755501,-0.0009798076,0.0015190005,0.0,0.0,0.0,0.024658203
-7.9941005e-05,0.0025607045,0.0024727713,0.0015827958,0.008958466,-0.013259173,0.0,0.0,0.0,0.008847373,-0.006656031,0.9999387,0.9999609,5.8890695e-05,-0.008847177,0.0,-0.9999779,-0.006656292,-0.03089717,-0.012557592,0.014472008,0.0005972376,-0.0010376965,0.0015837655,0.0,0.0,0.0,0.024963379
0.0007194467,0.0021610106,0.0007407656,0.0025154129,0.0057609174,-0.015257642,0.0,0.0,0.0,0.008847373,-0.006656031,0.9999387,0.9999609,5.8890695e-05,-0.008847177,0.0,-0.9999779,-0.006656292,-0.01653196,-0.03649961,0.021655083,0.0005115917,-0.001215006,0.0016841221,0.0,0.0,0.0,0.024719238
0.0015188344,0.0010951607,0.00233954,-0.0010818299,0.0070932303,-0.013259173,0.0,0.0,0.0,0.008847373,-0.006656031,0.9999387,0.9999609,5.8890695e-05,-0.008847177,0.0,-0.9999779,-0.006656292,-0.022517465,-0.008966293,0.02524662,0.0003964464,-0.0012537624,0.0018019347,0.0,0.0,0.0,0.024642944
-0.002344871,0.0036265543,-0.00045831595,0.0011831019,0.00602738,-0.012060092,0.0,0.0,0.0,0.008847373,-0.006656031,0.9999387,0.9999609,5.8890695e-05,-0.008847177,0.0,-0.9999779,-0.006656292,-0.023714565,-0.040090915,0.039611816,0.00027589136,-0.0014479482,0.0019909842,0.0,0.0,0.0,0.024627686
0.00045298412,-0.0047670137,-0.0012577032,-0.00041567348,0.006959999,-0.013525636,0.0,0.0,0.0,0.008847373,-0.006656031,0.9999387,0.9999609,5.8890695e-05,-0.008847177,0.0,-0.9999779,-0.006656292,0.024169467,-0.03649961,0.0025014877,0.00039535924,-0.0016232064,0.0019935367,0.0,0.0,0.0,0.024612427
-0.0019451771,-0.0025020828,0.00034107175,0.0031815693,0.0029630624,-0.014058561,0.0,0.0,0.0,0.008847373,-0.006656031,0.9999387,0.9999609,5.8890695e-05,-0.008847177,0.0,-0.9999779,-0.006656292,0.045717284,-0.0017836876,-0.029820442,0.0006219689,-0.0016240089,0.0018344668,0.0,0.0,0.0,0.02468872
0.0056490023,0.0025607045,-0.0011244724,0.0023821816,0.0066935364,-0.01725611,0.0,0.0,0.0,0.008847373,-0.006656031,0.9999387,0.9999609,5.8890695e-05,-0.008847177,0.0,-0.9999779,-0.006656292,0.044520184,0.047297448,-0.010666847,0.00084145996,-0.0013794015,0.0017719602,0.0,0.0,0.0,0.024749756
5.3290278e-05,0.0010951607,0.0008739969,0.0014495645,0.0077593867,-0.013525636,0.0,0.0,0.0,0.008847373,-0.006656031,0.9999387,0.9999609,5.8890695e-05,-0.008847177,0.0,-0.9999779,-0.006656292,0.020578168,-0.055653226,-0.022637367,0.0009401435,-0.0016507707,0.0016499136,0.0,0.0,0.0,0.024673462
-0.00074609555,0.0010951607,-0.00045831595,0.00025048293,0.005494455,-0.01818873,0.0,0.0,0.0,0.008847373,-0.006656031,0.9999387,0.9999609,5.8890695e-05,-0.008847177,0.0,-0.9999779,-0.006656292,-0.053642087,-0.004177887,-0.090872765,0.0006672323,-0.0016634063,0.0011873003,0.0,0.0,0.0,0.024658203
0.0011191405,0.00029577326,0.0022063088,0.0014495645,0.0052279923,-0.01392533,0.0,0.0,0.0,0.008847373,-0.006656031,0.9999387,0.9999609,5.8890695e-05,-0.008847177,0.0,-0.9999779,-0.006656292,-0.018926162,0.028143834,-0.019046783,0.00056926534,-0.0015143701,0.0010861299,0.0,0.0,0.0,0.024673462
-0.0012790207,-0.00023715169,0.001406922,0.0021157209,0.00935816,-0.0128594795,0.0,0.0,0.0,0.008847373,-0.006656031,0.9999387,0.9999609,5.8890695e-05,-0.008847177,0.0,-0.9999779,-0.006656292,-0.023714565,-0.018543098,-0.025032043,0.00044784622,-0.0015995137,0.00095553906,0.0,0.0,0.0,0.025115967
0.0009859093,0.0014948543,-0.0017906283,0.0025154129,0.008425541,-0.01605703,0.0,0.0,0.0,0.008847373,-0.006656031,0.9999387,0.9999609,5.8890695e-05,-0.008847177,0.0,-0.9999779,-0.006656292,-0.020123262,-0.011360493,-0.021440506,0.0003449907,-0.0016483185,0.00084355887,0.0,0.0,0.0,0.024795532
0.0029843785,-0.0035679326,-0.0011244724,0.0022489522,0.007492924,-0.014857948,0.0,0.0,0.0,0.008847373,-0.006656031,0.9999387,0.9999609,5.8890695e-05,-0.008847177,0.0,-0.9999779,-0.006656292,0.028957874,0.0042018183,0.034823418,0.0004880551,-0.0016190677,0.0010134581,0.0,0.0,0.0,0.024673462
0.0025846846,-0.00023715169,-0.0009912411,0.0011831019,0.0058941487,-0.0137920985,0.0,0.0,0.0,0.008847373,-0.006656031,0.9999387,0.9999609,5.8890695e-05,-0.008847177,0.0,-0.9999779,-0.006656292,0.0026216507,0.01856703,0.030035019,0.0004987231,-0.0015181373,0.0011585659,0.0,0.0,0.0,0.024719238
0.0009859093,-0.0059660953,-0.0031229407,0.001716027,0.0042953733,-0.015790567,0.0,0.0,0.0,0.008847373,-0.006656031,0.9999387,0.9999609,5.8890695e-05,-0.008847177,0.0,-0.9999779,-0.006656292,-0.01294066,-0.070018426,-0.026228905,0.00043152622,-0.0018606388,0.0010216285,0.0,0.0,0.0,0.024627686
-0.0035439525,0.00029577326,-0.0013909345,-0.0008153673,0.0068267677,-0.01619026,0.0,0.0,0.0,0.008847373,-0.006656031,0.9999387,0.9999609,5.8890695e-05,-0.008847177,0.0,-0.9999779,-0.006656292,0.056491196,-0.056850325,0.03242874,0.0007118245,-0.0021355872,0.001178664,0.0,0.0,0.0,0.024719238
0.002717916,0.001228392,0.0007407656,0.00011725165,0.0072264615,-0.014058561,0.0,0.0,0.0,0.008847373,-0.006656031,0.9999387,0.9999609,5.8890695e-05,-0.008847177,0.0,-0.9999779,-0.006656292,-0.0045609474,-0.0029807873,0.020458221,0.0006854607,-0.0021398133,0.0012750619,0.0,0.0,0.0,0.024673462
5.3290278e-05,-0.0011697704,0.0018066149,0.0026486441,0.008692004,-0.01392533,0.0,0.0,0.0,0.008847373,-0.006656031,0.9999387,0.9999609,5.8890695e-05,-0.008847177,0.0,-0.9999779,-0.006656292,-0.017729059,0.011384424,0.012078285,0.0005933881,-0.002072192,0.001329078,0.0,0.0,0.0,0.024734497
-0.0010125581,0.000695467,-0.0015241657,0.0006501768,0.00935816,-0.01512441,0.0,0.0,0.0,0.008847373,-0.006656031,0.9999387,0.9999609,5.8890695e-05,-0.008847177,0.0,-0.9999779,-0.006656292,-0.06441599,-0.0065720864,0.019260406,0.0002683412,-0.0020946914,0.0014187347,0.0,0.0,0.0,0.024673462
-0.00034640357,0.0010951607,-0.0019238596,0.0011831019,0.008425541,-0.014591485,0.0,0.0,0.0,0.008847373,-0.006656031,0.9999387,0.9999609,5.8890695e-05,-0.008847177,0.0,-0.9999779,-0.006656292,-0.0069551542,-0.043682214,0.04200554,0.0002322237,-0.002302629,0.0016216687,0.0,0.0,0.0,0.024597168
-0.00047963485,0.001228392,-0.00032508466,0.0035812631,0.0048282985,-0.0128594795,0.0,0.0,0.0,0.008847373,-0.006656031,0.9999387,0.9999609,5.8890695e-05,-0.008847177,0.0,-0.9999779,-0.006656292,-0.04645948,0.0042018183,-0.002286911,-1.2348173e-06,-0.0022701067,0.0016021258,0.0,0.0,0.0,0.024627686
-7.9941005e-05,0.0030936291,-0.0005915472,0.0027818754,0.009757854,-0.013392405,0.0,0.0,0.0,0.008847373,-0.006656031,0.9999387,0.9999609,5.8890695e-05,-0.008847177,0.0,-0.9999779,-0.006656292,0.031352073,-0.014951799,-0.0034837723,0.00015553171,-0.002333515,0.0015766963,0.0,0.0,0.0,0.024627686
0.00031975284,-0.002102389,0.0015401524,0.00091663934,0.008159079,-0.01392533,0.0,0.0,0.0,0.008847373,-0.006656031,0.9999387,0.9999609,5.8890695e-05,-0.008847177,0.0,-0.9999779,-0.006656292,-0.024911664,-0.0077691935,-0.022637367,3.0195733e-05,-0.0023606934,0.001455626,0.0,0.0,0.0,0.025222778
-0.00047963485,0.0016280856,-0.0008580098,0.003980957,0.009891085,-0.017522573,0.0,0.0,0.0,0.008847373,-0.006656031,0.9999387,0.9999609,5.8890695e-05,-0.008847177,0.0,-0.9999779,-0.006656292,0.033746272,-0.03530251,-0.002286911,0.00019877612,-0.0025254027,0.0014369133,0.0,0.0,0.0,0.02468872
-0.0019451771,-0.000103920465,0.0012736907,0.001716027,0.00829231,-0.014857948,0.0,0.0,0.0,0.008847373,-0.006656031,0.9999387,0.9999609,5.8890695e-05,-0.008847177,0.0,-0.9999779,-0.006656292,0.051702783,-0.03290831,0.015669823,0.00045629614,-0.0026773172,0.0015080778,0.0,0.0,0.0,0.024658203
-0.0020784084,0.0016280856,-0.0013909345,0.0010498706,0.007892616,-0.0128594795,0.0,0.0,0.0,0.008847373,-0.006656031,0.9999387,0.9999609,5.8890695e-05,-0.008847177,0.0,-0.9999779,-0.006656292,0.056491196,-0.016148899,-0.025032043,0.0007364706,-0.0027446751,0.0013753773,0.0,0.0,0.0,0.024612427
-0.00074609555,0.0020277794,0.002739234,0.0021157209,0.0072264615,-0.011926861,0.0,0.0,0.0,0.008847373,-0.006656031,0.9999387,0.9999609,5.8890695e-05,-0.008847177,0.0,-0.9999779,-0.006656292,-0.0045609474,-0.010163393,0.0048952103,0.0007099836,-0.0027817688,0.0013929765,0.0,0.0,0.0,0.024627686
-0.0012790207,0.0013616233,-0.0005915472,0.0025154129,0.008958466,-0.015657336,0.0,0.0,0.0,0.008847373,-0.006656031,0.9999387,0.9999609,5.8890695e-05,-0.008847177,0.0,-0.9999779,-0.006656292,-0.040473975,-0.03649961,-0.07291603,0.0005040638,-0.002950358,0.0010214315,0.0,0.0,0.0,0.024642944
0.0020517595,-0.00077007664,0.0006075343,0.0021157209,0.004162142,-0.014058561,0.0,0.0,0.0,0.008847373,-0.006656031,0.9999387,0.9999609,5.8890695e-05,-0.008847177,0.0,-0.9999779,-0.006656292,0.006212957,-0.004177887,-0.009469986,0.00053260825,-0.0029564956,0.00096897443,0.0,0.0,0.0,0.02470398
-0.002877796,-0.0011697704,-5.86221e-05,0.0038477257,0.007892616,-0.016323492,0.0,0.0,0.0,0.008847373,-0.006656031,0.9999387,0.9999609,5.8890695e-05,-0.008847177,0.0,-0.9999779,-0.006656292,-0.05005078,-0.022134397,-0.004681587,0.0002796913,-0.0030523853,0.00094072166,0.0,0.0,0.0,0.024658203
-0.002877796,-0.002102389,0.00020784047,0.0010498706,0.007492924,-0.012459786,0.0,0.0,0.0,0.008847373,-0.006656031,0.9999387,0.9999609,5.8890695e-05,-0.008847177,0.0,-0.9999779,-0.006656292,-0.040473975,-0.026922803,-0.025032043,7.592296e-05,-0.0031717375,0.00081085786,0.0,0.0,0.0,0.024627686
0.0024514534,-0.0018359266,-0.0011244724,0.0018492583,0.0066935364,-0.014591485,0.0,0.0,0.0,0.008847373,-0.006656031,0.9999387,0.9999609,5.8890695e-05,-0.008847177,0.0,-0.9999779,-0.006656292,-0.041671075,-0.028119903,-0.025032043,-0.00013281203,-0.0032964784,0.0006816434,0.0,0.0,0.0,0.024627686
0.003250841,-0.0003703829,0.00034107175,0.0018492583,0.00935816,-0.014991179,0.0,0.0,0.0,0.008847373,-0.006656031,0.9999387,0.9999609,5.8890695e-05,-0.008847177,0.0,-0.9999779,-0.006656292,-0.036882672,0.005398918,-0.019046783,-0.00031656132,-0.0032530015,0.00058300124,0.0,0.0,0.0,0.024642944
0.000852678,0.00042900455,-0.002323553,0.0034480318,0.0044286046,-0.01392533,0.0,0.0,0.0,0.008847373,-0.006656031,0.9999387,0.9999609,5.8890695e-05,-0.008847177,0.0,-0.9999779,-0.006656292,0.008607157,-0.012557592,-0.008272171,-0.00027194273,-0.0032995243,0.0005387254,0.0,0.0,0.0,0.024658203
-0.0010125581,-0.00077007664,0.0020730775,0.0027818754,0.0057609174,-0.014325023,0.0,0.0,0.0,0.008847373,-0.006656031,0.9999387,0.9999609,5.8890695e-05,-0.008847177,0.0,-0.9999779,-0.006656292,0.030154973,0.029340936,-0.023835182,-0.00011980816,-0.003136322,0.00041685588,0.0,0.0,0.0,0.02520752
0.0009859093,-0.0003703829,0.0018066149,0.0011831019,0.0072264615,-0.01725611,0.0,0.0,0.0,0.008847373,-0.006656031,0.9999387,0.9999609,5.8890695e-05,-0.008847177,0.0,-0.9999779,-0.006656292,0.050505683,0.020961229,0.040808678,0.00013331929,-0.0030158341,0.000618815,0.0,0.0,0.0,0.02468872
0.0019185282,-0.0005036142,0.0011404594,0.0010498706,0.005627686,-0.015790567,0.0,0.0,0.0,0.008847373,-0.006656031,0.9999387,0.9999609,5.8890695e-05,-0.008847177,0.0,-0.9999779,-0.006656292,-0.023714565,-0.013754692,-0.01306057,1.407988e-05,-0.0030695286,0.0005504181,0.0,0.0,0.0,0.024612427
-0.00047963485,-0.0003703829,0.00034107175,0.003048338,0.0061606113,-0.014724717,0.0,0.0,0.0,0.008847373,-0.006656031,0.9999387,0.9999609,5.8890695e-05,-0.008847177,0.0,-0.9999779,-0.006656292,-0.022517465,-0.016148899,0.03721714,-9.8577846e-05,-0.0031349254,0.0007337517,0.0,0.0,0.0,0.024597168
-0.004210109,-0.0011697704,0.0019398462,0.0005169455,0.0058941487,-0.0137920985,0.0,0.0,0.0,0.008847373,-0.006656031,0.9999387,0.9999609,5.8890695e-05,-0.008847177,0.0,-0.9999779,-0.006656292,-0.041671075,0.041311942,0.030035019,-0.00030644034,-0.002912691,0.00088025804,0.0,0.0,0.0,0.024749756
-0.00061286613,0.00082869816,0.0007407656,0.004380651,0.005094761,-0.015923798,0.0,0.0,0.0,0.008847373,-0.006656031,0.9999387,0.9999609,5.8890695e-05,-0.008847177,0.0,-0.9999779,-0.006656292,-0.04765658,0.0030047186,-0.025032043,-0.00054319104,-0.002883104,0.0007506965,0.0,0.0,0.0,0.024719238
0.00018652156,-0.0011697704,-0.0005915472,0.0022489522,0.007359693,-0.014991179,0.0,0.0,0.0,0.008847373,-0.006656031,0.9999387,0.9999609,5.8890695e-05,-0.008847177,0.0,-0.9999779,-0.006656292,-0.023714565,0.01856703,0.021655083,-0.00065904786,-0.0027758533,0.00085521844,0.0,0.0,0.0,0.024673462
-0.0019451771,-0.0005036142,-5.86221e-05,0.003048338,0.0066935364,-0.014724717,0.0,0.0,0.0,0.008847373,-0.006656031,0.9999387,0.9999609,5.8890695e-05,-0.008847177,0.0,-0.9999779,-0.006656292,0.008607157,-0.03290831,0.030035019,-0.00061271683,-0.0029265156,0.0010011174,0.0,0.0,0.0,0.024642944
-0.00034640357,0.00016254198,-0.0027232468,0.00011725165,0.0049615297,-0.014591485,0.0,0.0,0.0,0.008847373,-0.006656031,0.9999387,0.9999609,5.8890695e-05,-0.008847177,0.0,-0.9999779,-0.006656292,-0.011743553,0.020961229,-0.0034837723,-0.000668371,-0.002807077,0.0009786929,0.0,0.0,0.0,0.024612427
-0.001412252,0.0013616233,-0.001657397,0.0029151067,0.008692004,-0.01619026,0.0,0.0,0.0,0.008847373,-0.006656031,0.9999387,0.9999609,5.8890695e-05,-0.008847177,0.0,-0.9999779,-0.006656292,0.021775268,0.044903245,-0.08249283,-0.0005561528,-0.0025685255,0.0005613353,0.0,0.0,0.0,0.024642944
-0.00074609555,0.0028271666,0.0015401524,0.0010498706,0.009091698,-0.017389342,0.0,0.0,0.0,0.008847373,-0.006656031,0.9999387,0.9999609,5.8890695e-05,-0.008847177,0.0,-0.9999779,-0.006656292,0.060082495,-0.04966772,0.009683609,-0.00025295955,-0.0028040214,0.0006069467,0.0,0.0,0.0,0.024673462
-0.00021317229,0.000695467,0.001406922,0.0027818754,0.006560305,-0.011127474,0.0,0.0,0.0,0.008847373,-0.006656031,0.9999387,0.9999609,5.8890695e-05,-0.008847177,0.0,-0.9999779,-0.006656292,0.028957874,-0.019740198,-0.028623581,-0.0001069054,-0.0028887023,0.00046079408,0.0,0.0,0.0,0.02470398
-0.0011457894,0.0016280856,-0.00032508466,0.0021157209,0.01042401,-0.014724717,0.0,0.0,0.0,0.008847373,-0.006656031,0.9999387,0.9999609,5.8890695e-05,-0.008847177,0.0,-0.9999779,-0.006656292,-0.0153348595,-0.0065720864,-0.010666847,-0.00018304517,-0.0029071192,0.00040515588,0.0,0.0,0.0,0.025222778
-0.001412252,0.0013616233,0.0007407656,0.0046471134,0.009624623,-0.01619026,0.0,0.0,0.0,0.008847373,-0.006656031,0.9999387,0.9999609,5.8890695e-05,-0.008847177,0.0,-0.9999779,-0.006656292,-0.0033638477,0.014975727,-0.021440506,-0.00019894917,-0.002817705,0.00029592757,0.0,0.0,0.0,0.024673462
0.0019185282,-0.0009033079,-0.0008580098,-0.0012150612,0.006959999,-0.016989648,0.0,0.0,0.0,0.008847373,-0.006656031,0.9999387,0.9999609,5.8890695e-05,-0.008847177,0.0,-0.9999779,-0.006656292,-0.029700067,0.011384424,0.030035019,-0.00034645476,-0.0027466943,0.00044462303,0.0,0.0,0.0,0.024627686
-0.0011457894,-0.0018359266,-0.001657397,0.0014495645,0.004695067,-0.016323492,0.0,0.0,0.0,0.008847373,-0.006656031,0.9999387,0.9999609,5.8890695e-05,-0.008847177,0.0,-0.9999779,-0.006656292,0.013395563,0.0018076152,-0.010666847,-0.0002777447,-0.0027239227,0.00038906568,0.0,0.0,0.0,0.024627686
-0.00087932684,0.00016254198,-0.0012577032,0.001716027,0.0044286046,-0.014724717,0.0,0.0,0.0,0.008847373,-0.006656031,0.9999387,0.9999609,5.8890695e-05,-0.008847177,0.0,-0.9999779,-0.006656292,-0.052444983,0.0065960176,-0.032214165,-0.0005385809,-0.002677323,0.00022604954,0.0,0.0,0.0,0.024734497
-0.00021317229,-0.00077007664,-0.0019238596,0.0018492583,0.008692004,-0.014857948,0.0,0.0,0.0,0.008847373,-0.006656031,0.9999387,0.9999609,5.8890695e-05,-0.008847177,0.0,-0.9999779,-0.006656292,0.020578168,-0.0017836876,0.026443481,-0.00043299713,-0.0026728548,0.0003571367,0.0,0.0,0.0,0.024642944
0.0020517595,-0.0011697704,-0.0011244724,0.0019824896,0.0062938426,-0.016989648,0.0,0.0,0.0,0.008847373,-0.006656031,0.9999387,0.9999609,5.8890695e-05,-0.008847177,0.0,-0.9999779,-0.006656292,0.006212957,0.0018076152,-0.022637367,-0.00039976736,-0.0026504525,0.00024216418,0.0,0.0,0.0,0.024627686
-0.0018119458,0.0017613169,0.0015401524,0.00078340806,0.008025847,-0.012459786,0.0,0.0,0.0,0.008847373,-0.006656031,0.9999387,0.9999609,5.8890695e-05,-0.008847177,0.0,-0.9999779,-0.006656292,-0.0033638477,-0.020937297,0.008486748,-0.0004145878,-0.0027418868,0.0002833871,0.0,0.0,0.0,0.024642944
0.0015188344,0.0021610106,-0.0012577032,0.0025154129,0.006959999,-0.014591485,0.0,0.0,0.0,0.008847373,-0.006656031,0.9999387,0.9999609,5.8890695e-05,-0.008847177,0.0,-0.9999779,-0.006656292,0.012198463,0.0006105155,0.0132751465,-0.00035152253,-0.0027251246,0.00034834593,0.0,0.0,0.0,0.024627686
0.000852678,-0.002102389,0.0022063088,-0.00041567348,0.0057609174,-0.01725611,0.0,0.0,0.0,0.008847373,-0.006656031,0.9999387,0.9999609,5.8890695e-05,-0.008847177,0.0,-0.9999779,-0.006656292,0.016986862,-0.0077691935,0.010881424,-0.0002648306,-0.0027503448,0.00040101132,0.0,0.0,0.0,0.024658203
-0.00074609555,-0.0005036142,0.0019398462,0.001716027,0.0070932303,-0.014325023,0.0,0.0,0.0,0.008847373,-0.006656031,0.9999387,0.9999609,5.8890695e-05,-0.008847177,0.0,-0.9999779,-0.006656292,0.028957874,-0.03410541,-0.017848969,-0.00011871707,-0.0029071202,0.00030976144,0.0,0.0,0.0,0.024719238
0.0015188344,0.00042900455,-0.0012577032,0.0041141883,0.0066935364,-0.015923798,0.0,0.0,0.0,0.008847373,-0.006656031,0.9999387,0.9999609,5.8890695e-05,-0.008847177,0.0,-0.9999779,-0.006656292,0.012198463,-0.0077691935,-0.004681587,-5.713117e-05,-0.0029314305,0.00028480467,0.0,0.0,0.0,0.024673462
0.0025846846,0.0018945482,0.0010072282,0.0023821816,0.0062938426,-0.01619026,0.0,0.0,0.0,0.008847373,-0.006656031,0.9999387,0.9999609,5.8890695e-05,-0.008847177,0.0,-0.9999779,-0.006656292,-0.034488473,0.013778623,0.010881424,-0.00022928788,-0.0028478801,0.00033778776,0.0,0.0,0.0,0.025161743
-0.0020784084,0.0005622357,-0.0011244724,0.005046807,0.006427074,-0.015923798,0.0,0.0,0.0,0.008847373,-0.006656031,0.9999387,0.9999609,5.8890695e-05,-0.008847177,0.0,-0.9999779,-0.006656292,0.00022745132,-0.028119903,0.0013046265,-0.00022700417,-0.00297424,0.00034262196,0.0,0.0,0.0,0.024627686
-0.00034640357,0.00029577326,0.00233954,0.0027818754,0.007492924,-0.016856417,0.0,0.0,0.0,0.008847373,-0.006656031,0.9999387,0.9999609,5.8890695e-05,-0.008847177,0.0,-0.9999779,-0.006656292,-0.05962759,0.025749631,-0.01306057,-0.00052400713,-0.0028306209,0.000275606,0.0,0.0,0.0,0.02470398
0.003650535,-0.000103920465,0.00020784047,0.0033148006,0.0094913915,-0.014058561,0.0,0.0,0.0,0.008847373,-0.006656031,0.9999387,0.9999609,5.8890695e-05,-0.008847177,0.0,-0.9999779,-0.006656292,-0.017729059,0.0030047186,0.034823418,-0.00061003235,-0.0028014441,0.00044834503,0.0,0.0,0.0,0.024734497
0.0015188344,-0.0031682388,0.00020784047,0.0023821816,0.007892616,-0.015790567,0.0,0.0,0.0,0.008847373,-0.006656031,0.9999387,0.9999609,5.8890695e-05,-0.008847177,0.0,-0.9999779,-0.006656292,0.012198463,-0.0065720864,-0.004681587,-0.0005459899,-0.0028202974,0.00042269536,0.0,0.0,0.0,0.02470398
-7.9941005e-05,0.000695467,-0.0007247785,0.0027818754,0.005627686,-0.01512441,0.0,0.0,0.0,0.008847373,-0.006656031,0.9999387,0.9999609,5.8890695e-05,-0.008847177,0.0,-0.9999779,-0.006656292,0.044520184,0.0030047186,0.003698349,-0.00032065902,-0.0027911724,0.00043907366,0.0,0.0,0.0,0.024642944
0.000852678,-0.0015694641,-0.00045831595,0.0006501768,0.0076261554,-0.014591485,0.0,0.0,0.0,0.008847373,-0.006656031,0.9999387,0.9999609,5.8890695e-05,-0.008847177,0.0,-0.9999779,-0.006656292,0.009804256,-0.026922803,0.040808678,-0.00027003445,-0.0029118306,0.0006409217,0.0,0.0,0.0,0.024612427
0.0009859093,-0.0005036142,-0.00032508466,0.0014495645,0.0048282985,-0.01392533,0.0,0.0,0.0,0.008847373,-0.006656031,0.9999387,0.9999609,5.8890695e-05,-0.008847177,0.0,-0.9999779,-0.006656292,0.048111483,0.0006105155,0.045597076,-2.8126859e-05,-0.0028942188,0.00086570246,0.0,0.0,0.0,0.024612427
0.0025846846,0.0010951607,0.00020784047,0.0014495645,0.0053612236,-0.013525636,0.0,0.0,0.0,0.008847373,-0.006656031,0.9999387,0.9999609,5.8890695e-05,-0.008847177,0.0,-0.9999779,-0.006656292,-0.010546453,-0.0017836876,0.022851944,-8.071849e-05,-0.002888666,0.0009756337,0.0,0.0,0.0,0.024642944
-7.9941005e-05,-0.0011697704,-0.0017906283,0.0015827958,0.009757854,-0.015657336,0.0,0.0,0.0,0.008847373,-0.006656031,0.9999387,0.9999609,5.8890695e-05,-0.008847177,0.0,-0.9999779,-0.006656292,0.016986862,0.005398918,0.022851944,4.6194036e-06,-0.002847228,0.0010850152,0.0,0.0,0.0,0.024749756
0.001785297,0.0020277794,-5.86221e-05,0.0031815693,0.006560305,-0.014857948,0.0,0.0,0.0,0.008847373,-0.006656031,0.9999387,0.9999609,5.8890695e-05,-0.008847177,0.0,-0.9999779,-0.006656292,-0.0787812,0.01018732,0.0025014877,-0.0003893097,-0.0027820552,0.0010920976,0.0,0.0,0.0,0.024642944
-0.0030110274,-0.0006368454,0.00233954,0.0031815693,0.008025847,-0.014857948,0.0,0.0,0.0,0.008847373,-0.006656031,0.9999387,0.9999609,5.8890695e-05,-0.008847177,0.0,-0.9999779,-0.006656292,-0.021320362,-0.019740198,-0.0058784485,-0.00049396494,-0.002866846,0.001057245,0.0,0.0,0.0,0.024612427
0.0007194467,0.00042900455,0.0020730775,0.00025048293,0.0085587725,-0.014857948,0.0,0.0,0.0,0.008847373,-0.006656031,0.9999387,0.9999609,5.8890695e-05,-0.008847177,0.0,-0.9999779,-0.006656292,0.018183962,0.020961229,-0.025032043,-0.0004005753,-0.0027477057,0.00092679856,0.0,0.0,0.0,0.025146484
0.0016520657,-0.0003703829,-0.00032508466,0.0038477257,0.009091698,-0.013392405,0.0,0.0,0.0,0.008847373,-0.006656031,0.9999387,0.9999609,5.8890695e-05,-0.008847177,0.0,-0.9999779,-0.006656292,-0.021320362,0.013778623,-0.053762436,-0.0005051743,-0.002665074,0.0006533524,0.0,0.0,0.0,0.02468872
5.3290278e-05,-0.0014362328,0.0010072282,-1.5979633e-05,0.00602738,-0.015524104,0.0,0.0,0.0,0.008847373,-0.006656031,0.9999387,0.9999609,5.8890695e-05,-0.008847177,0.0,-0.9999779,-0.006656292,0.015789762,0.022158328,0.03721714,-0.00042369962,-0.0025409572,0.0008361714,0.0,0.0,0.0,0.024734497
-0.00034640357,0.0028271666,0.003272159,0.00091663934,0.0076261554,-0.014591485,0.0,0.0,0.0,0.008847373,-0.006656031,0.9999387,0.9999609,5.8890695e-05,-0.008847177,0.0,-0.9999779,-0.006656292,0.015789762,0.028143834,0.044400215,-0.0003426323,-0.0023875332,0.0010539916,0.0,0.0,0.0,0.024658203
0.0037837643,0.00029577326,7.460918e-05,0.00025048293,0.0058941487,-0.01605703,0.0,0.0,0.0,0.008847373,-0.006656031,0.9999387,0.9999609,5.8890695e-05,-0.008847177,0.0,-0.9999779,-0.006656292,0.0038187578,-0.008966293,0.009683609,-0.00032182533,-0.002420427,0.0010971397,0.0,0.0,0.0,0.024673462
0.0016520657,-0.0010365391,0.003272159,0.00078340806,0.0057609174,-0.01512441,0.0,0.0,0.0,0.008847373,-0.006656031,0.9999387,0.9999609,5.8890695e-05,-0.008847177,0.0,-0.9999779,-0.006656292,0.008607157,0.020961229,0.040808678,-0.00027718043,-0.0023035188,0.0012956973,0.0,0.0,0.0,0.024627686
0.00031975284,0.0030936291,-0.0008580098,0.0025154129,0.0070932303,-0.013125942,0.0,0.0,0.0,0.008847373,-0.006656031,0.9999387,0.9999609,5.8890695e-05,-0.008847177,0.0,-0.9999779,-0.006656292,-0.03209427,0.008990221,-0.017848969,-0.0004362659,-0.00224705,0.001199974,0.0,0.0,0.0,0.024627686
0.00045298412,0.000695467,0.0010072282,-0.00014921091,0.011090167,-0.014325023,0.0,0.0,0.0,0.008847373,-0.006656031,0.9999387,0.9999609,5.8890695e-05,-0.008847177,0.0,-0.9999779,-0.006656292,-0.04286818,-0.03290831,0.010881424,-0.0006484254,-0.0024003563,0.0012483813,0.0,0.0,0.0,0.024627686
0.0016520657,0.0036265543,0.0008739969,0.0014495645,0.0070932303,-0.014857948,0.0,0.0,0.0,0.008847373,-0.006656031,0.9999387,0.9999609,5.8890695e-05,-0.008847177,0.0,-0.9999779,-0.006656292,-0.04885368,-0.014951799,0.019260406,-0.0008894517,-0.0024631135,0.0013384414,0.0,0.0,0.0,0.02470398
-0.00021317229,2.9310817e-05,-0.0021903221,0.0011831019,0.009091698,-0.014591485,0.0,0.0,0.0,0.008847373,-0.006656031,0.9999387,0.9999609,5.8890695e-05,-0.008847177,0.0,-0.9999779,-0.006656292,-0.04286818,-0.028119903,-0.0058784485,-0.0010993454,-0.0025913974,0.001302357,0.0,0.0,0.0,0.024673462
-0.00047963485,0.00096192944,-0.0013909345,0.0041141883,0.005494455,-0.013259173,0.0,0.0,0.0,0.008847373,-0.006656031,0.9999387,0.9999609,5.8890695e-05,-0.008847177,0.0,-0.9999779,-0.006656292,-0.03329137,0.03652354,0.018063545,-0.0012603055,-0.0023958227,0.0013861628,0.0,0.0,0.0,0.024627686
-0.0027445648,-0.0031682388,-0.0007247785,0.0027818754,0.004162142,-0.012593017,0.0,0.0,0.0,0.008847373,-0.006656031,0.9999387,0.9999609,5.8890695e-05,-0.008847177,0.0,-0.9999779,-0.006656292,-0.034488473,-0.0053749867,0.033625603,-0.0014264464,-0.0024107185,0.0015473601,0.0,0.0,0.0,0.024673462
-0.0024781022,0.0010951607,0.00233954,0.0015827958,0.0068267677,-0.0128594795,0.0,0.0,0.0,0.008847373,-0.006656031,0.9999387,0.9999609,5.8890695e-05,-0.008847177,0.0,-0.9999779,-0.006656292,0.028957874,0.013778623,0.010881424,-0.0012745248,-0.0023297716,0.0015940304,0.0,0.0,0.0,0.025161743
0.0020517595,0.0017613169,0.0028724652,-0.00041567348,0.0053612236,-0.015257642,0.0,0.0,0.0,0.008847373,-0.006656031,0.9999387,0.9999609,5.8890695e-05,-0.008847177,0.0,-0.9999779,-0.006656292,0.07085641,-0.010163393,0.012078285,-0.00091387023,-0.0023689398,0.0016464517,0.0,0.0,0.0,0.024780273
-0.00074609555,-0.00077007664,0.001406922,0.0026486441,0.0049615297,-0.016589954,0.0,0.0,0.0,0.008847373,-0.006656031,0.9999387,0.9999609,5.8890695e-05,-0.008847177,0.0,-0.9999779,-0.006656292,-0.010546453,-0.008966293,0.021655083,-0.0009620331,-0.0024019266,0.0017464949,0.0,0.0,0.0,0.024627686
0.00018652156,0.0005622357,-0.0033894032,0.0031815693,0.006427074,-0.016589954,0.0,0.0,0.0,0.008847373,-0.006656031,0.9999387,0.9999609,5.8890695e-05,-0.008847177,0.0,-0.9999779,-0.006656292,0.028957874,-0.0029807873,0.021655083,-0.0008124336,-0.0024048209,0.0018460379,0.0,0.0,0.0,0.024642944
-0.0044765715,0.0013616233,0.0007407656,-0.0002824422,0.006959999,-0.01605703,0.0,0.0,0.0,0.008847373,-0.006656031,0.9999387,0.9999609,5.8890695e-05,-0.008847177,0.0,-0.9999779,-0.006656292,-0.022517465,-0.019740198,0.0013046265,-0.0009209588,-0.002491498,0.0018433308,0.0,0.0,0.0,0.024597168
0.0005862154,0.0024274732,0.0007407656,0.0025154129,0.0042953733,-0.014857948,0.0,0.0,0.0,0.008847373,-0.006656031,0.9999387,0.9999609,5.8890695e-05,-0.008847177,0.0,-0.9999779,-0.006656292,-0.0153348595,0.04250904,0.0013046265,-0.0009930283,-0.0022664953,0.0018406373,0.0,0.0,0.0,0.024597168
-0.0022116397,0.0010951607,0.0007407656,0.0003837142,0.0076261554,-0.014857948,0.0,0.0,0.0,0.008847373,-0.006656031,0.9999387,0.9999609,5.8890695e-05,-0.008847177,0.0,-0.9999779,-0.006656292,-0.03209427,0.030538036,-0.002286911,-0.0011485345,-0.0021024726,0.0018199995,0.0,0.0,0.0,0.02468872
-0.00034640357,0.00029577326,-0.0027232468,0.0034480318,0.006427074,-0.014325023,0.0,0.0,0.0,0.008847373,-0.006656031,0.9999387,0.9999609,5.8890695e-05,-0.008847177,0.0,-0.9999779,-0.006656292,-0.021320362,-0.038893815,-0.090872765,-0.0012493937,-0.0022864293,0.0013565358,0.0,0.0,0.0,0.024719238
-0.00021317229,2.9310817e-05,-5.86221e-05,0.0015827958,0.006959999,-0.014325023,0.0,0.0,0.0,0.008847373,-0.006656031,0.9999387,0.9999609,5.8890695e-05,-0.008847177,0.0,-0.9999779,-0.006656292,-0.010546453,0.0042018183,-0.0034837723,-0.001295879,-0.002253988,0.0013323342,0.0,0.0,0.0,0.02468872
0.0005862154,0.0018945482,0.0020730775,0.0022489522,0.0061606113,-0.014991179,0.0,0.0,0.0,0.008847373,-0.006656031,0.9999387,0.9999609,5.8890695e-05,-0.008847177,0.0,-0.9999779,-0.006656292,0.007410057,0.0030047186,-0.025032043,-0.0012523492,-0.0022276945,0.0012005124,0.0,0.0,0.0,0.024597168
0.00031975284,-0.0005036142,-0.00032508466,0.004380651,0.008425541,-0.015257642,0.0,0.0,0.0,0.008847373,-0.006656031,0.9999387,0.9999609,5.8890695e-05,-0.008847177,0.0,-0.9999779,-0.006656292,-0.020123262,0.017369926,0.0432024,-0.0013467039,-0.0021297066,0.0014105218,0.0,0.0,0.0,0.024627686
-0.0031442586,0.002294242,0.0019398462,0.0013163332,0.00602738,-0.013658867,0.0,0.0,0.0,0.008847373,-0.006656031,0.9999387,0.9999609,5.8890695e-05,-0.008847177,0.0,-0.9999779,-0.006656292,0.052899882,0.0030047186,0.00010681152,-0.001075471,-0.0021040344,0.0014040034,0.0,0.0,0.0,0.025146484
-0.00074609555,2.9310817e-05,-0.0005915472,0.0023821816,0.008425541,-0.015657336,0.0,0.0,0.0,0.008847373,-0.006656031,0.9999387,0.9999609,5.8890695e-05,-0.008847177,0.0,-0.9999779,-0.006656292,0.001424551,-0.0053749867,-0.01306057,-0.001062971,-0.0021203891,0.0013316806,0.0,0.0,0.0,0.024841309
-0.001412252,0.00042900455,-0.0012577032,-1.5979633e-05,0.008425541,-0.016723186,0.0,0.0,0.0,0.008847373,-0.006656031,0.9999387,0.9999609,5.8890695e-05,-0.008847177,0.0,-0.9999779,-0.006656292,-0.045262378,-0.0077691935,0.012078285,-0.001283968,-0.0021486331,0.0013854136,0.0,0.0,0.0,0.024658203
0.0021849908,-0.0013030017,0.00034107175,0.0010498706,0.008825235,-0.016456723,0.0,0.0,0.0,0.008847373,-0.006656031,0.9999387,0.9999609,5.8890695e-05,-0.008847177,0.0,-0.9999779,-0.006656292,-0.0153348595,-0.004177887,-0.004681587,-0.0013542224,-0.0021587792,0.0013550785,0.0,0.0,0.0,0.024658203
0.00018652156,-0.0034347014,0.0035386216,0.0010498706,0.0052279923,-0.01512441,0.0,0.0,0.0,0.008847373,-0.006656031,0.9999387,0.9999609,5.8890695e-05,-0.008847177,0.0,-0.9999779,-0.006656292,-0.018926162,0.01018732,-0.023835182,-0.0014420821,-0.0020970488,0.0012291273,0.0,0.0,0.0,0.024627686
0.0016520657,0.0038930168,-0.0007247785,0.0015827958,0.0062938426,-0.014591485,0.0,0.0,0.0,0.008847373,-0.006656031,0.9999387,0.9999609,5.8890695e-05,-0.008847177,0.0,-0.9999779,-0.006656292,-0.011743553,-0.016148899,-0.047777176,-0.0014935895,-0.002167308,0.0009840957,0.0,0.0,0.0,0.02468872
-0.0016787145,-0.0005036142,-0.0009912411,0.0042474195,0.0049615297,-0.013392405,0.0,0.0,0.0,0.008847373,-0.006656031,0.9999387,0.9999609,5.8890695e-05,-0.008847177,0.0,-0.9999779,-0.006656292,0.026563674,0.014975727,-0.031017303,-0.0013533032,-0.0020815928,0.0008240887,0.0,0.0,0.0,0.02468872
0.0019185282,0.0029603979,-0.0005915472,0.0033148006,0.006427074,-0.010328086,0.0,0.0,0.0,0.008847373,-0.006656031,0.9999387,0.9999609,5.8890695e-05,-0.008847177,0.0,-0.9999779,-0.006656292,0.0026216507,-0.008966293,0.02524662,-0.0013334284,-0.0021160163,0.0009462013,0.0,0.0,0.0,0.024719238
0.00031975284,0.0026939358,-0.004455253,0.0014495645,0.0033627562,-0.010194855,0.0,0.0,0.0,0.008847373,-0.006656031,0.9999387,0.9999609,5.8890695e-05,-0.008847177,0.0,-0.9999779,-0.006656292,0.054096997,-0.016148899,0.024048805,-0.0010562764,-0.0021861808,0.0010617144,0.0,0.0,0.0,0.024658203
0.0011191405,-0.0019691577,0.0011404594,0.00091663934,0.0048282985,-0.01605703,0.0,0.0,0.0,0.008847373,-0.006656031,0.9999387,0.9999609,5.8890695e-05,-0.008847177,0.0,-0.9999779,-0.006656292,0.014592662,0.01976413,-0.002286911,-0.0009780317,-0.0020764293,0.0010449713,0.0,0.0,0.0,0.024597168
0.0013856031,-0.0013030017,0.0028724652,0.00025048293,0.0048282985,-0.014058561,0.0,0.0,0.0,0.008847373,-0.006656031,0.9999387,0.9999609,5.8890695e-05,-0.008847177,0.0,-0.9999779,-0.006656292,0.056491196,0.032932237,0.030035019,-0.0006906856,-0.001901386,0.0011899215,0.0,0.0,0.0,0.02456665
0.002318222,-0.000103920465,0.0012736907,0.0038477257,0.0057609174,-0.014991179,0.0,0.0,0.0,0.008847373,-0.006656031,0.9999387,0.9999609,5.8890695e-05,-0.008847177,0.0,-0.9999779,-0.006656292,-0.01294066,-0.016148899,0.033625603,-0.00075193547,-0.0019726234,0.0013520999,0.0,0.0,0.0,0.024597168
-0.00061286613,0.0021610106,-0.0024567842,0.0011831019,0.004695067,-0.014991179,0.0,0.0,0.0,0.008847373,-0.006656031,0.9999387,0.9999609,5.8890695e-05,-0.008847177,0.0,-0.9999779,-0.006656292,0.0026216507,-0.017345998,-0.016652107,-0.00073506753,-0.00204949,0.0012620789,0.0,0.0,0.0,0.025177002
0.0019185282,-0.000103920465,7.460918e-05,0.0027818754,0.0068267677,-0.012326554,0.0,0.0,0.0,0.008847373,-0.006656031,0.9999387,0.9999609,5.8890695e-05,-0.008847177,0.0,-0.9999779,-0.006656292,-0.038079776,-0.029317003,0.008486748,-0.00092179107,-0.0021858278,0.0012982022,0.0,0.0,0.0,0.024719238
-0.00087932684,0.0028271666,-0.00019185338,0.003048338,0.0057609174,-0.0137920985,0.0,0.0,0.0,0.008847373,-0.006656031,0.9999387,0.9999609,5.8890695e-05,-0.008847177,0.0,-0.9999779,-0.006656292,-0.029700067,-0.018543098,-0.026228905,-0.0010656825,-0.0022676142,0.0011605667,0.0,0.0,0.0,0.024627686
0.0015188344,-0.0006368454,0.0007407656,0.0019824896,0.004028911,-0.017789036,0.0,0.0,0.0,0.008847373,-0.006656031,0.9999387,0.9999609,5.8890695e-05,-0.008847177,0.0,-0.9999779,-0.006656292,-0.021320362,-0.0065720864,-0.07530975,-0.0011669559,-0.0022891364,0.0007782151,0.0,0.0,0.0,0.024658203
-0.0010125581,0.0014948543,-0.00045831595,0.0025154129,0.008159079,-0.014591485,0.0,0.0,0.0,0.008847373,-0.006656031,0.9999387,0.9999609,5.8890695e-05,-0.008847177,0.0,-0.9999779,-0.006656292,0.03494338,0.020961229,-0.0405941,-0.0009864043,-0.0021728845,0.00057135354,0.0,0.0,0.0,0.024658203
-0.00074609555,-0.0011697704,0.0028724652,-0.0008153673,0.005494455,-0.013658867,0.0,0.0,0.0,0.008847373,-0.006656031,0.9999387,0.9999609,5.8890695e-05,-0.008847177,0.0,-0.9999779,-0.006656292,-0.044065278,0.0006105155,0.012078285,-0.0012017986,-0.0021589675,0.0006288882,0.0,0.0,0.0,0.024658203
-0.00034640357,0.00082869816,0.00047430303,0.0018492583,0.0053612236,-0.012992711,0.0,0.0,0.0,0.008847373,-0.006656031,0.9999387,0.9999609,5.8890695e-05,-0.008847177,0.0,-0.9999779,-0.006656292,0.033746272,0.04250904,-0.0118637085,-0.0010270582,-0.0019356277,0.0005664252,0.0,0.0,0.0,0.024719238
0.0020517595,-0.0003703829,-0.0015241657,0.0013163332,0.0066935364,-0.0128594795,0.0,0.0,0.0,0.008847373,-0.006656031,0.9999387,0.9999609,5.8890695e-05,-0.008847177,0.0,-0.9999779,-0.006656292,0.042125985,0.0018076152,0.003698349,-0.000811293,-0.0019169116,0.0005820848,0.0,0.0,0.0,0.02468872
0.0019185282,0.0028271666,-0.003256172,-0.00014921091,0.0094913915,-0.014458254,0.0,0.0,0.0,0.008847373,-0.006656031,0.9999387,0.9999609,5.8890695e-05,-0.008847177,0.0,-0.9999779,-0.006656292,-0.008152254,-0.0005865842,-0.023835182,-0.00084799784,-0.00191026,0.00045999847,0.0,0.0,0.0,0.024627686
0.0035173036,0.0032268604,0.0006075343,0.00011725165,0.006560305,-0.016589954,0.0,0.0,0.0,0.008847373,-0.006656031,0.9999387,0.9999609,5.8890695e-05,-0.008847177,0.0,-0.9999779,-0.006656292,0.0038187578,-0.03051411,0.009683609,-0.0008246641,-0.0020532792,0.00050611654,0.0,0.0,0.0,0.024627686
0.00045298412,-0.0015694641,-0.00045831595,0.0010498706,0.009757854,-0.014857948,0.0,0.0,0.0,0.008847373,-0.006656031,0.9999387,0.9999609,5.8890695e-05,-0.008847177,0.0,-0.9999779,-0.006656292,0.015789762,-0.011360493,-0.0058784485,-0.00074159197,-0.0020998153,0.00047419372,0.0,0.0,0.0,0.02468872
0.0021849908,0.00096192944,0.0010072282,0.0003837142,0.006959999,-0.012593017,0.0,0.0,0.0,0.008847373,-0.006656031,0.9999387,0.9999609,5.8890695e-05,-0.008847177,0.0,-0.9999779,-0.006656292,-0.04645948,0.0018076152,0.027640343,-0.0009701814,-0.0020802782,0.00061002444,0.0,0.0,0.0,0.024658203
0.00031975284,0.0029603979,-0.0020570909,0.0034480318,0.0076261554,-0.014591485,0.0,0.0,0.0,0.008847373,-0.006656031,0.9999387,0.9999609,5.8890695e-05,-0.008847177,0.0,-0.9999779,-0.006656292,-0.01413776,0.0125815235,-0.0070753098,-0.0010360193,-0.0020069692,0.0005715978,0.0,0.0,0.0,0.02532959
0.0019185282,0.002294242,0.00020784047,0.0023821816,0.008425541,-0.014058561,0.0,0.0,0.0,0.008847373,-0.006656031,0.9999387,0.9999609,5.8890695e-05,-0.008847177,0.0,-0.9999779,-0.006656292,0.0050158575,0.01976413,0.0072898865,-0.0010057599,-0.0018981138,0.0006051892,0.0,0.0,0.0,0.024719238
0.0021849908,0.00082869816,-0.00032508466,0.00091663934,0.0058941487,-0.0128594795,0.0,0.0,0.0,0.008847373,-0.006656031,0.9999387,0.9999609,5.8890695e-05,-0.008847177,0.0,-0.9999779,-0.006656292,-0.024911664,-0.022134397,0.003698349,-0.0011252895,-0.0019992953,0.000620655,0.0,0.0,0.0,0.024658203
0.000852678,0.00042900455,-0.0015241657,0.0038477257,0.008025847,-0.017522573,0.0,0.0,0.0,0.008847373,-0.006656031,0.9999387,0.9999609,5.8890695e-05,-0.008847177,0.0,-0.9999779,-0.006656292,0.020578168,0.0125815235,-0.017848969,-0.0010167721,-0.0019263914,0.0005283069,0.0,0.0,0.0,0.02456665
0.0028511472,0.001228392,0.0015401524,0.001716027,0.0072264615,-0.014857948,0.0,0.0,0.0,0.008847373,-0.006656031,0.9999387,0.9999609,5.8890695e-05,-0.008847177,0.0,-0.9999779,-0.006656292,0.03853468,-0.013754692,-0.027425766,-0.00081901485,-0.001985533,0.00038853654,0.0,0.0,0.0,0.024719238
0.0013856031,2.9310817e-05,-0.00045831595,0.0006501768,0.0070932303,-0.01512441,0.0,0.0,0.0,0.008847373,-0.006656031,0.9999387,0.9999609,5.8890695e-05,-0.008847177,0.0,-0.9999779,-0.006656292,0.055294096,0.030538036,0.027640343,-0.00053844927,-0.001822915,0.00052479556,0.0,0.0,0.0,0.024719238
0.0011191405,-0.0017026954,0.0012736907,0.0029151067,0.004561836,-0.015390873,0.0,0.0,0.0,0.008847373,-0.006656031,0.9999387,0.9999609,5.8890695e-05,-0.008847177,0.0,-0.9999779,-0.006656292,-0.00096964836,-0.013754692,-0.054959297,-0.0005406053,-0.0018825738,0.00024737508,0.0,0.0,0.0,0.024627686
-0.0015454832,-0.0009033079,0.00047430303,0.001716027,0.0085587725,-0.015657336,0.0,0.0,0.0,0.008847373,-0.006656031,0.9999387,0.9999609,5.8890695e-05,-0.008847177,0.0,-0.9999779,-0.006656292,-0.045262378,0.044903245,0.003698349,-0.0007642141,-0.0016486447,0.00026462995,0.0,0.0,0.0,0.024597168
0.0028511472,-0.0014362328,0.0011404594,0.0029151067,0.0072264615,-0.016989648,0.0,0.0,0.0,0.008847373,-0.006656031,0.9999387,0.9999609,5.8890695e-05,-0.008847177,0.0,-0.9999779,-0.006656292,-0.002166748,-0.03290831,-0.0010900497,-0.00077122677,-0.001804943,0.00025785656,0.0,0.0,0.0,0.024597168
-0.0026113335,0.0028271666,0.0024727713,0.0010498706,0.004695067,-0.015524104,0.0,0.0,0.0,0.008847373,-0.006656031,0.9999387,0.9999609,5.8890695e-05,-0.008847177,0.0,-0.9999779,-0.006656292,-0.029700067,-0.026922803,0.03602028,-0.00091587094,-0.0019305323,0.0004366687,0.0,0.0,0.0,0.024597168
0.0015188344,0.00029577326,-0.00045831595,0.0022489522,0.00829231,-0.012459786,0.0,0.0,0.0,0.008847373,-0.006656031,0.9999387,0.9999609,5.8890695e-05,-0.008847177,0.0,-0.9999779,-0.006656292,-0.03209427,-0.024528604,0.039611816,-0.0010717629,-0.0020435227,0.0006325444,0.0,0.0,0.0,0.024597168
5.3290278e-05,0.0010951607,-0.00045831595,0.001716027,0.008425541,-0.014058561,0.0,0.0,0.0,0.008847373,-0.006656031,0.9999387,0.9999609,5.8890695e-05,-0.008847177,0.0,-0.9999779,-0.006656292,-0.0811754,0.01856703,0.003698349,-0.0014722811,-0.00194047,0.00064787344,0.0,0.0,0.0,0.024749756
0.0007194467,0.0033600917,7.460918e-05,0.0015827958,0.00935816,-0.013658867,0.0,0.0,0.0,0.008847373,-0.006656031,0.9999387,0.9999609,5.8890695e-05,-0.008847177,0.0,-0.9999779,-0.006656292,-0.024911664,0.030538036,0.015669823,-0.001589478,-0.0017780775,0.00072298315,0.0,0.0,0.0,0.025177002
-0.00047963485,-0.00023715169,-5.86221e-05,0.0033148006,0.008159079,-0.014191791,0.0,0.0,0.0,0.008847373,-0.006656031,0.9999387,0.9999609,5.8890695e-05,-0.008847177,0.0,-0.9999779,-0.006656292,-0.0153348595,0.0042018183,-0.009469986,-0.001658205,-0.0017481779,0.0006720183,0.0,0.0,0.0,0.024627686
-0.00074609555,0.0013616233,0.0012736907,0.0011831019,0.006959999,-0.018455192,0.0,0.0,0.0,0.008847373,-0.006656031,0.9999387,0.9999609,5.8890695e-05,-0.008847177,0.0,-0.9999779,-0.006656292,0.019381069,-0.019740198,0.020458221,-0.0015530086,-0.001838138,0.0007709493,0.0,0.0,0.0,0.024536133
-0.00021317229,0.004559173,-0.0013909345,0.001716027,0.00602738,-0.017389342,0.0,0.0,0.0,0.008847373,-0.006656031,0.9999387,0.9999609,5.8890695e-05,-0.008847177,0.0,-0.9999779,-0.006656292,0.021775268,0.011384424,-0.0010900497,-0.0014363672,-0.0017720253,0.0007616443,0.0,0.0,0.0,0.024536133
0.004583152,-0.0019691577,-0.002323553,0.0019824896,0.008692004,-0.016589954,0.0,0.0,0.0,0.008847373,-0.006656031,0.9999387,0.9999609,5.8890695e-05,-0.008847177,0.0,-0.9999779,-0.006656292,0.031352073,-0.0017836876,0.009683609,-0.001272425,-0.0017720836,0.0008062541,0.0,0.0,0.0,0.02456665
5.3290278e-05,0.00029577326,0.0007407656,0.0037144944,0.008025847,-0.01392533,0.0,0.0,0.0,0.008847373,-0.006656031,0.9999387,0.9999609,5.8890695e-05,-0.008847177,0.0,-0.9999779,-0.006656292,-0.03209427,-0.008966293,-0.025032043,-0.0014265343,-0.0018080546,0.0006770626,0.0,0.0,0.0,0.024627686
0.0020517595,-0.00023715169,0.00034107175,0.0005169455,0.0070932303,-0.01605703,0.0,0.0,0.0,0.008847373,-0.006656031,0.9999387,0.9999609,5.8890695e-05,-0.008847177,0.0,-0.9999779,-0.006656292,-0.022517465,-0.008966293,-0.002286911,-0.001531989,-0.0018438458,0.00066224276,0.0,0.0,0.0,0.024658203
0.000852678,-0.00077007664,0.0006075343,0.005979426,0.012289248,-0.013392405,0.0,0.0,0.0,0.008847373,-0.006656031,0.9999387,0.9999609,5.8890695e-05,-0.008847177,0.0,-0.9999779,-0.006656292,-0.024911664,0.017369926,0.00010681152,-0.0016488874,-0.001747777,0.0006594656,0.0,0.0,0.0,0.02456665
0.00018652156,-0.00023715169,-0.0024567842,0.0037144944,0.006427074,-0.013392405,0.0,0.0,0.0,0.008847373,-0.006656031,0.9999387,0.9999609,5.8890695e-05,-0.008847177,0.0,-0.9999779,-0.006656292,-0.026108764,-0.03171121,0.0132751465,-0.0017711868,-0.0018975942,0.000722544,0.0,0.0,0.0,0.02456665
0.00045298412,0.0036265543,-0.0025900155,0.0027818754,0.0068267677,-0.014591485,0.0,0.0,0.0,0.008847373,-0.006656031,0.9999387,0.9999609,5.8890695e-05,-0.008847177,0.0,-0.9999779,-0.006656292,0.015789762,0.026946735,0.027640343,-0.0016833821,-0.0017533726,0.00085713295,0.0,0.0,0.0,0.02456665
0.0016520657,-0.0031682388,0.00034107175,0.0019824896,0.006560305,-0.012726248,0.0,0.0,0.0,0.008847373,-0.006656031,0.9999387,0.9999609,5.8890695e-05,-0.008847177,0.0,-0.9999779,-0.006656292,-0.03329137,0.0018076152,0.03242874,-0.0018414219,-0.0017355677,0.001014991,0.0,0.0,0.0,0.024597168
0.0019185282,-0.0003703829,-0.0008580098,0.0010498706,0.0085587725,-0.016723186,0.0,0.0,0.0,0.008847373,-0.006656031,0.9999387,0.9999609,5.8890695e-05,-0.008847177,0.0,-0.9999779,-0.006656292,-0.026108764,0.007793121,-0.016652107,-0.0019627586,-0.0016879243,0.00092665554,0.0,0.0,0.0,0.02468872
-0.001412252,0.00082869816,-0.00045831595,0.0027818754,0.0068267677,-0.013392405,0.0,0.0,0.0,0.008847373,-0.006656031,0.9999387,0.9999609,5.8890695e-05,-0.008847177,0.0,-0.9999779,-0.006656292,0.0038187578,-0.055653226,-0.016652107,-0.001933851,-0.0019577506,0.00083876174,0.0,0.0,0.0,0.025177002
0.0015188344,0.00082869816,0.0010072282,0.0038477257,0.0077593867,-0.017922267,0.0,0.0,0.0,0.008847373,-0.006656031,0.9999387,0.9999609,5.8890695e-05,-0.008847177,0.0,-0.9999779,-0.006656292,-0.018926162,-0.014951799,-0.0118637085,-0.0020188126,-0.0020227209,0.0007752494,0.0,0.0,0.0,0.024627686
-0.0011457894,0.0018945482,0.0019398462,0.0018492583,0.006560305,-0.01619026,0.0,0.0,0.0,0.008847373,-0.006656031,0.9999387,0.9999609,5.8890695e-05,-0.008847177,0.0,-0.9999779,-0.006656292,0.045717284,0.01976413,0.030035019,-0.0017801321,-0.0019137865,0.0009215482,0.0,0.0,0.0,0.024536133
0.0009859093,-0.0031682388,0.00020784047,0.00011725165,0.003629217,-0.014058561,0.0,0.0,0.0,0.008847373,-0.006656031,0.9999387,0.9999609,5.8890695e-05,-0.008847177,0.0,-0.9999779,-0.006656292,0.076841906,0.011384424,-0.0070753098,-0.0013870219,-0.0018472956,0.000881564,0.0,0.0,0.0,0.024536133
0.0019185282,0.0038930168,0.00233954,0.0029151067,0.0038956795,-0.0137920985,0.0,0.0,0.0,0.008847373,-0.006656031,0.9999387,0.9999609,5.8890695e-05,-0.008847177,0.0,-0.9999779,-0.006656292,-0.0045609474,-0.041288015,-0.037002563,-0.0014028915,-0.0020444992,0.00069214334,0.0,0.0,0.0,0.024597168
-0.0016787145,-0.00077007664,-0.0017906283,0.0014495645,0.0085587725,-0.016989648,0.0,0.0,0.0,0.008847373,-0.006656031,0.9999387,0.9999609,5.8890695e-05,-0.008847177,0.0,-0.9999779,-0.006656292,0.011001363,-0.018543098,0.012078285,-0.0013408702,-0.0021269922,0.00074907404,0.0,0.0,0.0,0.024719238
0.0013856031,0.0005622357,-0.0015241657,0.0013163332,0.0070932303,-0.014591485,0.0,0.0,0.0,0.008847373,-0.006656031,0.9999387,0.9999609,5.8890695e-05,-0.008847177,0.0,-0.9999779,-0.006656292,-0.01653196,0.0065960176,0.024048805,-0.0014168256,-0.0020833772,0.0008655727,0.0,0.0,0.0,0.02456665
-0.0015454832,-0.00077007664,0.0006075343,0.0037144944,0.0076261554,-0.016989648,0.0,0.0,0.0,0.008847373,-0.006656031,0.9999387,0.9999609,5.8890695e-05,-0.008847177,0.0,-0.9999779,-0.006656292,-0.020123262,0.023355432,0.040808678,-0.0015103577,-0.0019561832,0.0010652882,0.0,0.0,0.0,0.02456665
0.001785297,0.00042900455,0.0007407656,0.0026486441,0.008025847,-0.01512441,0.0,0.0,0.0,0.008847373,-0.006656031,0.9999387,0.9999609,5.8890695e-05,-0.008847177,0.0,-0.9999779,-0.006656292,0.018183962,0.0042018183,-0.0405941,-0.0014118862,-0.0019253932,0.0008569912,0.0,0.0,0.0,0.024658203
0.00045298412,0.0017613169,-0.00032508466,0.0006501768,0.0058941487,-0.014724717,0.0,0.0,0.0,0.008847373,-0.006656031,0.9999387,0.9999609,5.8890695e-05,-0.008847177,0.0,-0.9999779,-0.006656292,-0.03329137,-0.0077691935,-0.037002563,-0.0015712836,-0.0019546123,0.00066769344,0.0,0.0,0.0,0.024536133
-0.00021317229,0.0014948543,0.0010072282,0.0018492583,0.008825235,-0.014857948,0.0,0.0,0.0,0.008847373,-0.006656031,0.9999387,0.9999609,5.8890695e-05,-0.008847177,0.0,-0.9999779,-0.006656292,-0.018926162,0.014975727,0.0132751465,-0.0016580579,-0.0018699606,0.0007307307,0.0,0.0,0.0,0.024597168
-0.002877796,0.0014948543,0.00034107175,0.0034480318,0.005627686,-0.015524104,0.0,0.0,0.0,0.008847373,-0.006656031,0.9999387,0.9999609,5.8890695e-05,-0.008847177,0.0,-0.9999779,-0.006656292,-0.044065278,0.022158328,0.030035019,-0.001870094,-0.0017498191,0.0008772522,0.0,0.0,0.0,0.02468872
-0.00047963485,0.00042900455,0.0012736907,0.0023821816,0.008692004,-0.016323492,0.0,0.0,0.0,0.008847373,-0.006656031,0.9999387,0.9999609,5.8890695e-05,-0.008847177,0.0,-0.9999779,-0.006656292,-0.01413776,-0.028119903,0.016866684,-0.0019314323,-0.0018816696,0.0009571994,0.0,0.0,0.0,0.025146484
-0.0024781022,-0.0013030017,0.0028724652,-0.0008153673,0.0066935364,-0.016456723,0.0,0.0,0.0,0.008847373,-0.006656031,0.9999387,0.9999609,5.8890695e-05,-0.008847177,0.0,-0.9999779,-0.006656292,0.040928878,-0.044879314,0.034823418,-0.0017171308,-0.0020966579,0.0011265305,0.0,0.0,0.0,0.024627686
0.00045298412,-0.0003703829,0.0028724652,0.0026486441,0.00602738,-0.015524104,0.0,0.0,0.0,0.008847373,-0.006656031,0.9999387,0.9999609,5.8890695e-05,-0.008847177,0.0,-0.9999779,-0.006656292,0.008607157,-0.017345998,0.038414,-0.0016655093,-0.0021729046,0.0013129679,0.0,0.0,0.0,0.024597168
-0.0019451771,-0.0019691577,-0.0005915472,0.0042474195,0.0085587725,-0.014058561,0.0,0.0,0.0,0.008847373,-0.006656031,0.9999387,0.9999609,5.8890695e-05,-0.008847177,0.0,-0.9999779,-0.006656292,0.028957874,0.01856703,-0.031017303,-0.0015123924,-0.0020692048,0.0011513166,0.0,0.0,0.0,0.024597168
0.00018652156,2.9310817e-05,-0.0009912411,0.0013163332,0.008825235,-0.014857948,0.0,0.0,0.0,0.008847373,-0.006656031,0.9999387,0.9999609,5.8890695e-05,-0.008847177,0.0,-0.9999779,-0.006656292,-0.021320362,-0.03171121,-0.03820038,-0.0016114323,-0.0022174148,0.000954558,0.0,0.0,0.0,0.024597168
-0.0036771838,-0.0010365391,0.0016733836,0.0021157209,0.0048282985,-0.015657336,0.0,0.0,0.0,0.008847373,-0.006656031,0.9999387,0.9999609,5.8890695e-05,-0.008847177,0.0,-0.9999779,-0.006656292,-0.0057580546,-0.03649961,0.040808678,-0.0016321655,-0.0023888256,0.0011538286,0.0,0.0,0.0,0.024719238
-0.0011457894,-0.0014362328,-0.0011244724,0.0035812631,0.0057609174,-0.014591485,0.0,0.0,0.0,0.008847373,-0.006656031,0.9999387,0.9999609,5.8890695e-05,-0.008847177,0.0,-0.9999779,-0.006656292,0.03853468,-0.0053749867,0.003698349,-0.0014313313,-0.0024037564,0.0011665511,0.0,0.0,0.0,0.024597168
-0.0019451771,0.0016280856,-0.002856478,0.0019824896,0.0077593867,-0.015790567,0.0,0.0,0.0,0.008847373,-0.006656031,0.9999387,0.9999609,5.8890695e-05,-0.008847177,0.0,-0.9999779,-0.006656292,-0.018926162,-0.0029807873,0.009683609,-0.0015188054,-0.0024066416,0.0012091364,0.0,0.0,0.0,0.024536133
0.00045298412,0.0016280856,0.0011404594,0.0022489522,0.009224929,-0.017922267,0.0,0.0,0.0,0.008847373,-0.006656031,0.9999387,0.9999609,5.8890695e-05,-0.008847177,0.0,-0.9999779,-0.006656292,0.014592662,0.014975727,-0.0034837723,-0.0014382481,-0.00231973,0.0011856719,0.0,0.0,0.0,0.02456665
-0.00047963485,0.0005622357,0.002739234,0.0013163332,0.0070932303,-0.01392533,0.0,0.0,0.0,0.008847373,-0.006656031,0.9999387,0.9999609,5.8890695e-05,-0.008847177,0.0,-0.9999779,-0.006656292,-0.028502967,-0.011360493,0.003698349,-0.0015735717,-0.0023649337,0.0011982353,0.0,0.0,0.0,0.024597168
-0.0031442586,0.001228392,-5.86221e-05,0.0035812631,0.006427074,-0.01512441,0.0,0.0,0.0,0.008847373,-0.006656031,0.9999387,0.9999609,5.8890695e-05,-0.008847177,0.0,-0.9999779,-0.006656292,-0.038079776,-0.022134397,0.027640343,-0.0017561028,-0.002463781,0.0013304459,0.0,0.0,0.0,0.024627686
0.0028511472,-0.00077007664,0.00047430303,0.0014495645,0.0066935364,-0.014591485,0.0,0.0,0.0,0.008847373,-0.006656031,0.9999387,0.9999609,5.8890695e-05,-0.008847177,0.0,-0.9999779,-0.006656292,-0.024911664,0.038917743,0.10305786,-0.0018718806,-0.0022568735,0.0018390829,0.0,0.0,0.0025412217,0.024658203
0.000852678,0.003493323,-0.0005915472,0.0022489522,0.006560305,-0.014857948,0.0,0.0,0.0,0.008847373,-0.006656031,0.9999387,0.9999609,5.8890695e-05,-0.008847177,0.0,-0.9999779,-0.006656292,0.0050158575,0.0030047186,-0.035805702,-0.0018374419,-0.0022305655,0.001650859,0.0,0.0,0.0025412217,0.025146484
0.0020517595,-0.0006368454,0.0020730775,0.0042474195,0.0070932303,-0.01605703,0.0,0.0,0.0,0.008847373,-0.006656031,0.9999387,0.9999609,5.8890695e-05,-0.008847177,0.0,-0.9999779,-0.006656292,0.011001363,-0.016148899,0.0013046265,-0.001773248,-0.0023001572,0.0016491278,0.0,0.0,0.0025412217,0.024627686
0.0011191405,-0.0022356203,0.00233954,0.0025154129,0.0058941487,-0.014591485,0.0,0.0,0.0,0.008847373,-0.006656031,0.9999387,0.9999609,5.8890695e-05,-0.008847177,0.0,-0.9999779,-0.006656292,0.009804256,0.0065960176,-0.019046783,-0.0017153604,-0.0022556765,0.0015456483,0.0,0.0,0.0025412217,0.02456665
5.3290278e-05,-0.0006368454,0.0016733836,0.0034480318,0.010290779,-0.015257642,0.0,0.0,0.0,0.008847373,-0.006656031,0.9999387,0.9999609,5.8890695e-05,-0.008847177,0.0,-0.9999779,-0.006656292,0.03853468,0.016172826,0.07073593,-0.0015141102,-0.002163534,0.0018915997,0.0,0.0,0.0025412217,0.024627686
5.3290278e-05,-0.00077007664,-0.002856478,0.00011725165,0.008159079,-0.012326554,0.0,0.0,0.0,0.008847373,-0.006656031,0.9999387,0.9999609,5.8890695e-05,-0.008847177,0.0,-0.9999779,-0.006656292,0.013395563,0.0006105155,0.00010681152,-0.001439562,-0.0021496639,0.0018826758,0.0,0.0,0.0025412217,0.024658203
5.3290278e-05,-0.00023715169,0.0022063088,0.0031815693,0.0068267677,-0.012992711,0.0,0.0,0.0,0.008847373,-0.006656031,0.9999387,0.9999609,5.8890695e-05,-0.008847177,0.0,-0.9999779,-0.006656292,0.019381069,0.0042018183,-0.004681587,-0.0013354587,-0.0021179065,0.0018498545,0.0,0.0,0.0025412217,0.02468872
-0.0026113335,-0.00077007664,7.460918e-05,0.00025048293,0.0062938426,-0.012459786,0.0,0.0,0.0,0.008847373,-0.006656031,0.9999387,0.9999609,5.8890695e-05,-0.008847177,0.0,-0.9999779,-0.006656292,-0.01413776,-0.004177887,0.0048952103,-0.0013994703,-0.0021282062,0.0018650813,0.0,0.0,0.0025412217,0.024627686
-0.00034640357,-0.0013030017,-0.0021903221,0.0005169455,0.0053612236,-0.016989648,0.0,0.0,0.0,0.008847373,-0.006656031,0.9999387,0.9999609,5.8890695e-05,-0.008847177,0.0,-0.9999779,-0.006656292,-0.04645948,-0.0005865842,-0.048974037,-0.0016247702,-0.002120498,0.0016108856,0.0,0.0,0.0025412217,0.02456665
0.0031176098,0.0026939358,-0.0024567842,0.0025154129,0.0070932303,-0.013392405,0.0,0.0,0.0,0.008847373,-0.006656031,0.9999387,0.9999609,5.8890695e-05,-0.008847177,0.0,-0.9999779,-0.006656292,0.007410057,0.0018076152,0.022851944,-0.0015795962,-0.0021008577,0.0017170908,0.0,0.0,0.0025412217,0.024536133
-0.00021317229,-0.0013030017,-0.0009912411,0.0035812631,0.005627686,-0.0137920985,0.0,0.0,0.0,0.008847373,-0.006656031,0.9999387,0.9999609,5.8890695e-05,-0.008847177,0.0,-0.9999779,-0.006656292,-0.022517465,-0.0053749867,-0.016652107,-0.0016842856,-0.0021172282,0.0016252449,0.0,0.0,0.0025412217,0.024536133
0.0015188344,0.00096192944,-0.0019238596,0.0003837142,0.0076261554,-0.014591485,0.0,0.0,0.0,0.008847373,-0.006656031,0.9999387,0.9999609,5.8890695e-05,-0.008847177,0.0,-0.9999779,-0.006656292,-0.041671075,-0.013754692,0.040808678,-0.0018842196,-0.0021754156,0.001821162,0.0,0.0,0.0025412217,0.024627686
0.00018652156,0.0020277794,0.00047430303,-0.0010818299,0.0077593867,-0.014591485,0.0,0.0,0.0,0.008847373,-0.006656031,0.9999387,0.9999609,5.8890695e-05,-0.008847177,0.0,-0.9999779,-0.006656292,-0.044065278,0.024552532,0.028837204,-0.002095125,-0.0020417757,0.0019562421,0.0,0.0,0.0025412217,0.02468872
0.0009859093,0.00082869816,7.460918e-05,0.0013163332,0.006560305,-0.012992711,0.0,0.0,0.0,0.008847373,-0.006656031,0.9999387,0.9999609,5.8890695e-05,-0.008847177,0.0,-0.9999779,-0.006656292,0.012198463,0.014975727,0.0048952103,-0.002023657,-0.0019566882,0.001970937,0.0,0.0,0.0025412217,0.025115967
-7.9941005e-05,0.0018945482,0.0018066149,0.0014495645,0.007892616,-0.016589954,0.0,0.0,0.0,0.008847373,-0.006656031,0.9999387,0.9999609,5.8890695e-05,-0.008847177,0.0,-0.9999779,-0.006656292,-0.017729059,0.014975727,0.0048952103,-0.002102184,-0.0018720261,0.0019855583,0.0,0.0,0.0025412217,0.024597168
0.0029843785,-0.0035679326,0.0008739969,0.00025048293,0.0070932303,-0.013259173,0.0,0.0,0.0,0.008847373,-0.006656031,0.9999387,0.9999609,5.8890695e-05,-0.008847177,0.0,-0.9999779,-0.006656292,-0.0069551542,0.01976413,0.0048952103,-0.002126449,-0.0017638453,0.0020001067,0.0,0.0,0.0025412217,0.024597168
-0.0024781022,0.00016254198,-0.0009912411,0.0023821816,0.0049615297,-0.016856417,0.0,0.0,0.0,0.008847373,-0.006656031,0.9999387,0.9999609,5.8890695e-05,-0.008847177,0.0,-0.9999779,-0.006656292,0.043323085,0.026946735,-0.06932449,-0.0018992014,-0.0016202924,0.0016434838,0.0,0.0,0.0025412217,0.024627686
-0.00047963485,-0.0038343952,0.0006075343,0.0014495645,0.0068267677,-0.01619026,0.0,0.0,0.0,0.008847373,-0.006656031,0.9999387,0.9999609,5.8890695e-05,-0.008847177,0.0,-0.9999779,-0.006656292,0.042125985,-0.0077691935,0.056370735,-0.0016790755,-0.0016510369,0.0019171201,0.0,0.0,0.0025412217,0.024719238
0.0019185282,-0.0022356203,-0.0011244724,0.0026486441,0.008958466,-0.01619026,0.0,0.0,0.0,0.008847373,-0.006656031,0.9999387,0.9999609,5.8890695e-05,-0.008847177,0.0,-0.9999779,-0.006656292,-0.022517465,0.0065960176,0.020458221,-0.0017832675,-0.0016098017,0.0020098255,0.0,0.0,0.0025412217,0.024627686
-0.00074609555,0.0044259415,0.0011404594,0.0026486441,0.0058941487,-0.014191791,0.0,0.0,0.0,0.008847373,-0.006656031,0.9999387,0.9999609,5.8890695e-05,-0.008847177,0.0,-0.9999779,-0.006656292,0.020578168,-0.011360493,0.03123188,-0.0016714602,-0.0016585551,0.0021559359,0.0,0.0,0.0025412217,0.024627686
0.00045298412,-0.0009033079,0.00047430303,0.0033148006,0.009757854,-0.015257642,0.0,0.0,0.0,0.008847373,-0.006656031,0.9999387,0.9999609,5.8890695e-05,-0.008847177,0.0,-0.9999779,-0.006656292,-0.01413776,0.0042018183,-0.016652107,-0.0017337917,-0.0016292533,0.0020618958,0.0,0.0,0.0025412217,0.02456665
-0.0011457894,-0.0014362328,-0.0020570909,-0.00068213604,0.0066935364,-0.016723186,0.0,0.0,0.0,0.008847373,-0.006656031,0.9999387,0.9999609,5.8890695e-05,-0.008847177,0.0,-0.9999779,-0.006656292,-0.041671075,-0.018543098,-0.01306057,-0.001933478,-0.0017138225,0.0019862833,0.0,0.0,0.0025412217,0.02456665
0.0020517595,0.001228392,0.0012736907,0.0018492583,0.008425541,-0.015790567,0.0,0.0,0.0,0.008847373,-0.006656031,0.9999387,0.9999609,5.8890695e-05,-0.008847177,0.0,-0.9999779,-0.006656292,-0.05962759,-0.016148899,0.03721714,-0.0022219487,-0.0017859979,0.0021624377,0.0,0.0,0.0025412217,0.024536133
0.001785297,2.9310817e-05,0.001406922,0.0038477257,0.01042401,-0.015257642,0.0,0.0,0.0,0.008847373,-0.006656031,0.9999387,0.9999609,5.8890695e-05,-0.008847177,0.0,-0.9999779,-0.006656292,0.012198463,-0.055653226,0.03602028,-0.0021498466,-0.002055334,0.002331727,0.0,0.0,0.0025412217,0.02468872
0.0029843785,-0.0013030017,0.0006075343,0.0023821816,0.0052279923,-0.012992711,0.0,0.0,0.0,0.008847373,-0.006656031,0.9999387,0.9999609,5.8890695e-05,-0.008847177,0.0,-0.9999779,-0.006656292,-0.009349354,-0.060441624,0.003698349,-0.0021858441,-0.0023472654,0.00233856,0.0,0.0,0.0025412217,0.025238037
0.0013856031,0.0018945482,0.0012736907,0.0031815693,0.005627686,-0.014325023,0.0,0.0,0.0,0.008847373,-0.006656031,0.9999387,0.9999609,5.8890695e-05,-0.008847177,0.0,-0.9999779,-0.006656292,0.022972368,-0.023331504,-0.048974037,-0.002060053,-0.0024521865,0.0020819972,0.0,0.0,0.0025412217,0.02456665
0.00031975284,-0.0005036142,-0.0019238596,0.001716027,0.00829231,-0.014458254,0.0,0.0,0.0,0.008847373,-0.006656031,0.9999387,0.9999609,5.8890695e-05,-0.008847177,0.0,-0.9999779,-0.006656292,0.046914384,0.017369926,0.051582336,-0.0018151809,-0.0023530761,0.0023294988,0.0,0.0,0.0025412217,0.02456665
0.000852678,2.9310817e-05,-0.0007247785,0.0025154129,0.007492924,-0.015923798,0.0,0.0,0.0,0.008847373,-0.006656031,0.9999387,0.9999609,5.8890695e-05,-0.008847177,0.0,-0.9999779,-0.006656292,0.009804256,-0.017345998,-0.017848969,-0.0017570837,-0.0024280406,0.0022286063,0.0,0.0,0.0025412217,0.024597168
5.3290278e-05,-0.0009033079,-0.0013909345,0.00078340806,0.0068267677,-0.014724717,0.0,0.0,0.0,0.008847373,-0.006656031,0.9999387,0.9999609,5.8890695e-05,-0.008847177,0.0,-0.9999779,-0.006656292,0.03853468,0.017369926,0.021655083,-0.0015556249,-0.0023290508,0.0023257385,0.0,0.0,0.0025412217,0.024597168
5.3290278e-05,0.002294242,-0.0029897094,0.0021157209,0.0061606113,-0.015657336,0.0,0.0,0.0,0.008847373,-0.006656031,0.9999387,0.9999609,5.8890695e-05,-0.008847177,0.0,-0.9999779,-0.006656292,0.008607157,0.005398918,-0.021440506,-0.0015048109,-0.002290411,0.0022069074,0.0,0.0,0.0025412217,0.02468872
-0.0018119458,0.0005622357,0.0038050842,0.0003837142,0.006560305,-0.016589954,0.0,0.0,0.0,0.008847373,-0.006656031,0.9999387,0.9999609,5.8890695e-05,-0.008847177,0.0,-0.9999779,-0.006656292,-0.045262378,-0.018543098,0.014472008,-0.0017235987,-0.0023716744,0.0022682329,0.0,0.0,0.0025412217,0.024627686
-0.00034640357,2.9310817e-05,-0.0019238596,0.0027818754,0.0057609174,-0.016856417,0.0,0.0,0.0,0.008847373,-0.006656031,0.9999387,0.9999609,5.8890695e-05,-0.008847177,0.0,-0.9999779,-0.006656292,0.015789762,-0.023331504,0.0132751465,-0.0016360319,-0.0024764736,0.0023232675,0.0,0.0,0.0025412217,0.024627686
5.3290278e-05,0.0016280856,0.001406922,0.004380651,0.0094913915,-0.015524104,0.0,0.0,0.0,0.008847373,-0.006656031,0.9999387,0.9999609,5.8890695e-05,-0.008847177,0.0,-0.9999779,-0.006656292,-0.05005078,-0.023331504,0.0132751465,-0.0018781056,-0.0025807486,0.002378027,0.0,0.0,0.0025412217,0.02456665
-0.00034640357,0.0028271666,-0.0020570909,0.0019824896,0.00935816,-0.017789036,0.0,0.0,0.0,0.008847373,-0.006656031,0.9999387,0.9999609,5.8890695e-05,-0.008847177,0.0,-0.9999779,-0.006656292,-0.039276876,0.044903245,-0.004681587,-0.0020650993,-0.0023433287,0.002342729,0.0,0.0,0.0025412217,0.024536133
0.0028511472,0.0017613169,0.0018066149,0.0034480318,0.0062938426,-0.018055499,0.0,0.0,0.0,0.008847373,-0.006656031,0.9999387,0.9999609,5.8890695e-05,-0.008847177,0.0,-0.9999779,-0.006656292,-0.035685573,0.041311942,0.008486748,-0.0022332016,-0.0021250523,0.002373449,0.0,0.0,0.0025412217,0.02456665
-0.00021317229,-0.0005036142,-0.0011244724,0.0019824896,0.0077593867,-0.015923798,0.0,0.0,0.0,0.008847373,-0.006656031,0.9999387,0.9999609,5.8890695e-05,-0.008847177,0.0,-0.9999779,-0.006656292,-0.01413776,-0.018543098,-0.027425766,-0.0022927243,-0.0022071425,0.002224453,0.0,0.0,0.0025412217,0.024658203
5.3290278e-05,0.00096192944,0.0011404594,-0.00014921091,0.006560305,-0.013525636,0.0,0.0,0.0,0.008847373,-0.006656031,0.9999387,0.9999609,5.8890695e-05,-0.008847177,0.0,-0.9999779,-0.006656292,-0.018926162,-0.0017836876,0.03242874,-0.0023758914,-0.0022050252,0.0023754744,0.0,0.0,0.0025412217,0.025299072
0.00031975284,0.00016254198,-0.003922328,0.0011831019,0.0038956795,-0.013259173,0.0,0.0,0.0,0.008847373,-0.006656031,0.9999387,0.9999609,5.8890695e-05,-0.008847177,0.0,-0.9999779,-0.006656292,0.020578168,-0.017345998,0.021655083,-0.002261121,-0.0022807298,0.0024718724,0.0,0.0,0.0025412217,0.024597168
-0.0011457894,-0.0010365391,0.0012736907,0.0005169455,0.009091698,-0.014591485,0.0,0.0,0.0,0.008847373,-0.006656031,0.9999387,0.9999609,5.8890695e-05,-0.008847177,0.0,-0.9999779,-0.006656292,0.019381069,-0.023331504,0.0072898865,-0.0021529102,-0.0023859837,0.0024959624,0.0,0.0,0.0025412217,0.02456665
0.0013856031,-0.0022356203,-0.0005915472,0.0023821816,0.00829231,-0.01712288,0.0,0.0,0.0,0.008847373,-0.006656031,0.9999387,0.9999609,5.8890695e-05,-0.008847177,0.0,-0.9999779,-0.006656292,0.043323085,-0.014951799,-0.0118637085,-0.0019255304,-0.0024488126,0.0024241642,0.0,0.0,0.0025412217,0.024536133
-0.00074609555,0.00042900455,-0.002323553,0.0018492583,0.010290779,-0.013525636,0.0,0.0,0.0,0.008847373,-0.006656031,0.9999387,0.9999609,5.8890695e-05,-0.008847177,0.0,-0.9999779,-0.006656292,0.07205351,0.011384424,0.0025014877,-0.0015556351,-0.0023796463,0.002424551,0.0,0.0,0.0025412217,0.024627686
0.0019185282,2.9310817e-05,0.0007407656,0.00078340806,0.00935816,-0.016456723,0.0,0.0,0.0,0.008847373,-0.006656031,0.9999387,0.9999609,5.8890695e-05,-0.008847177,0.0,-0.9999779,-0.006656292,0.046914384,-0.0053749867,-0.004681587,-0.0013132851,-0.0023946231,0.0023890203,0.0,0.0,0.0025412217,0.02468872
0.0029843785,-0.0014362328,-0.0027232468,0.0037144944,0.008159079,-0.016323492,0.0,0.0,0.0,0.008847373,-0.006656031,0.9999387,0.9999609,5.8890695e-05,-0.008847177,0.0,-0.9999779,-0.006656292,-0.062021792,0.0018076152,-0.032214165,-0.0016168277,-0.002373612,0.0022160043,0.0,0.0,0.0025412217,0.024627686
0.0013856031,0.00096192944,0.00233954,0.003980957,0.007492924,-0.014058561,0.0,0.0,0.0,0.008847373,-0.006656031,0.9999387,0.9999609,5.8890695e-05,-0.008847177,0.0,-0.9999779,-0.006656292,-0.018926162,-0.038893815,-0.0118637085,-0.0017033743,-0.002556213,0.0021456059,0.0,0.0,0.0025412217,0.024627686
0.001785297,-0.0006368454,-0.00019185338,0.0038477257,0.007359693,-0.015657336,0.0,0.0,0.0,0.008847373,-0.006656031,0.9999387,0.9999609,5.8890695e-05,-0.008847177,0.0,-0.9999779,-0.006656292,-0.01653196,-0.03171121,0.0132751465,-0.0017775173,-0.002701988,0.0022012538,0.0,0.0,0.0025412217,0.024810791
0.001785297,-0.002102389,0.0018066149,0.0026486441,0.0072264615,-0.016456723,0.0,0.0,0.0,0.008847373,-0.006656031,0.9999387,0.9999609,5.8890695e-05,-0.008847177,0.0,-0.9999779,-0.006656292,-0.024911664,0.026946735,0.0025014877,-0.001893188,-0.0025537442,0.0022027548,0.0,0.0,0.0025412217,0.024749756
0.00045298412,0.0010951607,0.0019398462,0.0031815693,0.009091698,-0.014724717,0.0,0.0,0.0,0.008847373,-0.006656031,0.9999387,0.9999609,5.8890695e-05,-0.008847177,0.0,-0.9999779,-0.006656292,-0.008152254,0.028143834,0.019260406,-0.0019244833,-0.0024002565,0.002288043,0.0,0.0,0.0025412217,0.024658203
-0.0016787145,0.0018945482,0.0019398462,-0.00054890476,0.006959999,-0.014991179,0.0,0.0,0.0,0.008847373,-0.006656031,0.9999387,0.9999609,5.8890695e-05,-0.008847177,0.0,-0.9999779,-0.006656292,-0.029700067,-0.026922803,-0.08129597,-0.0020633612,-0.0025228693,0.0018701231,0.0,0.0,0.0025412217,0.02468872
0.0005862154,-0.0026353141,0.0011404594,0.0034480318,0.007359693,-0.015390873,0.0,0.0,0.0,0.008847373,-0.006656031,0.9999387,0.9999609,5.8890695e-05,-0.008847177,0.0,-0.9999779,-0.006656292,-0.002166748,-0.004177887,0.051582336,-0.0020638783,-0.0025311443,0.0021186841,0.0,0.0,0.0025412217,0.025177002
-0.00327749,-0.00077007664,0.0031389277,0.003048338,0.0076261554,-0.012992711,0.0,0.0,0.0,0.008847373,-0.006656031,0.9999387,0.9999609,5.8890695e-05,-0.008847177,0.0,-0.9999779,-0.006656292,0.026563674,-0.016148899,0.0013046265,-0.0019207407,-0.002599233,0.002114614,0.0,0.0,0.0025412217,0.024597168
0.0013856031,-0.0017026954,-0.0035226345,0.0019824896,0.00829231,-0.014991179,0.0,0.0,0.0,0.008847373,-0.006656031,0.9999387,0.9999609,5.8890695e-05,-0.008847177,0.0,-0.9999779,-0.006656292,-0.002166748,-0.016148899,0.006093025,-0.0019219707,-0.0026669814,0.0021345061,0.0,0.0,0.0025412217,0.024597168
0.00018652156,0.0017613169,0.00034107175,-0.0002824422,0.006959999,-0.01619026,0.0,0.0,0.0,0.008847373,-0.006656031,0.9999387,0.9999609,5.8890695e-05,-0.008847177,0.0,-0.9999779,-0.006656292,0.027760774,0.005398918,-0.029820442,-0.001773557,-0.002626652,0.0019747315,0.0,0.0,0.0025412217,0.024627686
-0.0012790207,0.002294242,0.0026060026,0.0033148006,0.0057609174,-0.016323492,0.0,0.0,0.0,0.008847373,-0.006656031,0.9999387,0.9999609,5.8890695e-05,-0.008847177,0.0,-0.9999779,-0.006656292,-0.036882672,-0.03649961,-0.04418564,-0.0019491026,-0.0027960166,0.0017439296,0.0,0.0,0.0025412217,0.024719238
-0.0018119458,0.002294242,-5.86221e-05,0.0023821816,0.0072264615,-0.012992711,0.0,0.0,0.0,0.008847373,-0.006656031,0.9999387,0.9999609,5.8890695e-05,-0.008847177,0.0,-0.9999779,-0.006656292,-0.01653196,-0.03290831,0.020458221,-0.002022017,-0.0029465782,0.0018375011,0.0,0.0,0.0025412217,0.024658203
-0.0015454832,-0.0010365391,-0.0012577032,0.003048338,0.008159079,-0.01392533,0.0,0.0,0.0,0.008847373,-0.006656031,0.9999387,0.9999609,5.8890695e-05,-0.008847177,0.0,-0.9999779,-0.006656292,-0.0153348595,-0.03051411,-0.042988777,-0.0020885814,-0.003084416,0.0016133697,0.0,0.0,0.0025412217,0.024627686
0.00018652156,-0.000103920465,-0.002856478,-0.00014921091,0.0052279923,-0.014857948,0.0,0.0,0.0,0.008847373,-0.006656031,0.9999387,0.9999609,5.8890695e-05,-0.008847177,0.0,-0.9999779,-0.006656292,0.0038187578,0.022158328,0.021655083,-0.0020590448,-0.0029582025,0.0017135782,0.0,0.0,0.0025412217,0.024597168
-0.00021317229,0.0016280856,0.00047430303,0.0013163332,0.005494455,-0.013259173,0.0,0.0,0.0,0.008847373,-0.006656031,0.9999387,0.9999609,5.8890695e-05,-0.008847177,0.0,-0.9999779,-0.006656292,-0.008152254,-0.014951799,0.0072898865,-0.0020895107,-0.0030181704,0.0017414597,0.0,0.0,0.0025412217,0.024597168
0.0028511472,-0.0014362328,0.0019398462,0.0033148006,0.009091698,-0.01619026,0.0,0.0,0.0,0.008847373,-0.006656031,0.9999387,0.9999609,5.8890695e-05,-0.008847177,0.0,-0.9999779,-0.006656292,-0.03209427,-0.023331504,0.03123188,-0.0022395344,-0.003119737,0.0018889118,0.0,0.0,0.0025412217,0.024627686
0.00018652156,-0.002102389,7.460918e-05,0.0003837142,0.0070932303,-0.014724717,0.0,0.0,0.0,0.008847373,-0.006656031,0.9999387,0.9999609,5.8890695e-05,-0.008847177,0.0,-0.9999779,-0.006656292,-0.020123262,-0.018543098,-0.014258385,-0.002328953,-0.0031968537,0.0018081754,0.0,0.0,0.0025412217,0.02468872
0.001785297,-0.00023715169,-0.00045831595,0.00091663934,0.008025847,-0.014724717,0.0,0.0,0.0,0.008847373,-0.006656031,0.9999387,0.9999609,5.8890695e-05,-0.008847177,0.0,-0.9999779,-0.006656292,-0.018926162,-0.03171121,-0.03341198,-0.002411939,-0.0033394254,0.0016320746,0.0,0.0,0.0025412217,0.024658203
-0.0018119458,-0.0017026954,-0.0012577032,-0.0008153673,0.0061606113,-0.014458254,0.0,0.0,0.0,0.008847373,-0.006656031,0.9999387,0.9999609,5.8890695e-05,-0.008847177,0.0,-0.9999779,-0.006656292,0.0038187578,-0.03649961,-0.029820442,-0.0023807855,-0.0035052262,0.001474812,0.0,0.0,0.0025412217,0.025146484
0.0013856031,-0.00023715169,-0.0019238596,0.0003837142,0.00602738,-0.014591485,0.0,0.0,0.0,0.008847373,-0.006656031,0.9999387,0.9999609,5.8890695e-05,-0.008847177,0.0,-0.9999779,-0.006656292,-0.0045609474,-0.07600394,-0.004681587,-0.0023916864,-0.0038677198,0.00144403,0.0,0.0,0.0025412217,0.02456665
0.0005862154,2.9310817e-05,0.0016733836,0.0003837142,0.006560305,-0.015524104,0.0,0.0,0.0,0.008847373,-0.006656031,0.9999387,0.9999609,5.8890695e-05,-0.008847177,0.0,-0.9999779,-0.006656292,0.00022745132,-0.022134397,0.046793938,-0.0023785909,-0.003959053,0.0016707794,0.0,0.0,0.0025412217,0.024597168
-0.0010125581,-0.00023715169,0.0011404594,0.0029151067,0.0068267677,-0.01818873,0.0,0.0,0.0,0.008847373,-0.006656031,0.9999387,0.9999609,5.8890695e-05,-0.008847177,0.0,-0.9999779,-0.006656292,-0.041671075,-0.013754692,0.006093025,-0.0025750534,-0.0040080315,0.0016928907,0.0,0.0,0.0025412217,0.024627686
0.0016520657,0.0032268604,-0.0011244724,-1.5979633e-05,0.007492924,-0.015390873,0.0,0.0,0.0,0.008847373,-0.006656031,0.9999387,0.9999609,5.8890695e-05,-0.008847177,0.0,-0.9999779,-0.006656292,0.011001363,-0.012557592,-0.010666847,-0.0025071714,-0.004050779,0.0016310919,0.0,0.0,0.0025412217,0.02468872
0.00031975284,-0.0023688516,-0.0036558658,-0.00014921091,0.006560305,-0.015657336,0.0,0.0,0.0,0.008847373,-0.006656031,0.9999387,0.9999609,5.8890695e-05,-0.008847177,0.0,-0.9999779,-0.006656292,0.001424551,-0.004177887,0.040808678,-0.0024875128,-0.004051415,0.0018269798,0.0,0.0,0.0025412217,0.024627686
-0.00021317229,0.0014948543,0.0039383154,0.004513882,0.0077593867,-0.013259173,0.0,0.0,0.0,0.008847373,-0.006656031,0.9999387,0.9999609,5.8890695e-05,-0.008847177,0.0,-0.9999779,-0.006656292,-0.002166748,-0.044879314,-0.025032043,-0.002485909,-0.004255554,0.0016926847,0.0,0.0,0.0025412217,0.024597168
-0.00074609555,-0.00023715169,-0.0011244724,0.0033148006,0.009091698,-0.013125942,0.0,0.0,0.0,0.008847373,-0.006656031,0.9999387,0.9999609,5.8890695e-05,-0.008847177,0.0,-0.9999779,-0.006656292,-0.05843049,0.0006105155,0.046793938,-0.002765632,-0.004231224,0.001918191,0.0,0.0,0.0025412217,0.024536133
-0.0024781022,-0.0010365391,0.00047430303,0.0035812631,0.005627686,-0.015257642,0.0,0.0,0.0,0.008847373,-0.006656031,0.9999387,0.9999609,5.8890695e-05,-0.008847177,0.0,-0.9999779,-0.006656292,-0.029700067,0.013778623,0.026443481,-0.0029003043,-0.0041411747,0.0020408174,0.0,0.0,0.0025412217,0.02456665
0.00045298412,0.000695467,0.0018066149,0.0023821816,0.0070932303,-0.014724717,0.0,0.0,0.0,0.008847373,-0.006656031,0.9999387,0.9999609,5.8890695e-05,-0.008847177,0.0,-0.9999779,-0.006656292,-0.024911664,0.034129336,0.02524662,-0.003010361,-0.0039498224,0.0021568465,0.0,0.0,0.0025412217,0.024597168
0.0021849908,-0.0013030017,-0.0015241657,-0.00014921091,0.00602738,-0.015657336,0.0,0.0,0.0,0.008847373,-0.006656031,0.9999387,0.9999609,5.8890695e-05,-0.008847177,0.0,-0.9999779,-0.006656292,0.043323085,0.0018076152,0.028837204,-0.0027786938,-0.003921035,0.0022902482,0.0,0.0,0.0025412217,0.02468872
0.0011191405,0.0013616233,-0.00032508466,0.00091663934,0.0077593867,-0.014325023,0.0,0.0,0.0,0.008847373,-0.006656031,0.9999387,0.9999609,5.8890695e-05,-0.008847177,0.0,-0.9999779,-0.006656292,-0.00096964836,0.005398918,-0.01306057,-0.0027696486,-0.0038744353,0.002213494,0.0,0.0,0.0025412217,0.024627686
-0.00087932684,-0.0006368454,0.0026060026,0.0037144944,0.0070932303,-0.017389342,0.0,0.0,0.0,0.008847373,-0.006656031,0.9999387,0.9999609,5.8890695e-05,-0.008847177,0.0,-0.9999779,-0.006656292,0.0050158575,-0.018543098,0.033625603,-0.002730721,-0.0039477786,0.0023705545,0.0,0.0,0.0025412217,0.025177002
0.0005862154,-0.0029017765,0.0007407656,0.0031815693,0.0053612236,-0.013658867,0.0,0.0,0.0,0.008847373,-0.006656031,0.9999387,0.9999609,5.8890695e-05,-0.008847177,0.0,-0.9999779,-0.006656292,-0.040473975,-0.019740198,-0.03460884,-0.0029194371,-0.004026741,0.0021856576,0.0,0.0,0.0025412217,0.024627686
0.0013856031,0.0016280856,-0.0027232468,0.0035812631,0.007492924,-0.01605703,0.0,0.0,0.0,0.008847373,-0.006656031,0.9999387,0.9999609,5.8890695e-05,-0.008847177,0.0,-0.9999779,-0.006656292,-0.0069551542,-0.0029807873,0.0132751465,-0.0029396159,-0.004021511,0.002241105,0.0,0.0,0.0025412217,0.024597168
0.0016520657,0.00082869816,0.0011404594,-0.0002824422,0.0068267677,-0.014724717,0.0,0.0,0.0,0.008847373,-0.006656031,0.9999387,0.9999609,5.8890695e-05,-0.008847177,0.0,-0.9999779,-0.006656292,0.018183962,-0.05086482,0.008486748,-0.0028339978,-0.0042557274,0.0022723335,0.0,0.0,0.0025412217,0.024627686
-0.00061286613,0.003493323,0.0011404594,0.0025154129,0.0072264615,-0.014191791,0.0,0.0,0.0,0.008847373,-0.006656031,0.9999387,0.9999609,5.8890695e-05,-0.008847177,0.0,-0.9999779,-0.006656292,-0.05962759,0.0065960176,0.039611816,-0.0031179658,-0.004201469,0.0024590308,0.0,0.0,0.0025412217,0.02468872
-0.00047963485,-0.00077007664,0.00034107175,0.0015827958,0.0077593867,-0.017922267,0.0,0.0,0.0,0.008847373,-0.006656031,0.9999387,0.9999609,5.8890695e-05,-0.008847177,0.0,-0.9999779,-0.006656292,-0.03329137,0.0030047186,0.033625603,-0.0032688328,-0.004165438,0.0026148637,0.0,0.0,0.0025412217,0.024597168
-0.0019451771,-0.0039676265,0.00020784047,0.0006501768,0.007892616,-0.016323492,0.0,0.0,0.0,0.008847373,-0.006656031,0.9999387,0.9999609,5.8890695e-05,-0.008847177,0.0,-0.9999779,-0.006656292,0.0026216507,-0.043682214,-0.010666847,-0.0032393802,-0.004363022,0.002548455,0.0,0.0,0.0025412217,0.024536133
-0.00047963485,-0.002102389,-0.0021903221,0.0021157209,0.0072264615,-0.015923798,0.0,0.0,0.0,0.008847373,-0.006656031,0.9999387,0.9999609,5.8890695e-05,-0.008847177,0.0,-0.9999779,-0.006656292,-0.034488473,0.013778623,-0.022637367,-0.0033956256,-0.0042723133,0.0024225258,0.0,0.0,0.0025412217,0.02456665
-0.00021317229,0.001228392,-0.0009912411,0.0029151067,0.005627686,-0.013525636,0.0,0.0,0.0,0.008847373,-0.006656031,0.9999387,0.9999609,5.8890695e-05,-0.008847177,0.0,-0.9999779,-0.006656292,0.03494338,0.028143834,0.0132751465,-0.0032039308,-0.0041102325,0.002476789,0.0,0.0,0.0025412217,0.024597168
-0.0016787145,-0.0003703829,-0.00032508466,-0.00014921091,0.010024317,-0.015657336,0.0,0.0,0.0,0.008847373,-0.006656031,0.9999387,0.9999609,5.8890695e-05,-0.008847177,0.0,-0.9999779,-0.006656292,0.028957874,0.041311942,0.018063545,-0.0030431217,-0.0038831218,0.0025547228,0.0,0.0,0.0025412217,0.024658203
-0.0018119458,-0.0010365391,-0.0012577032,-1.5979633e-05,0.008025847,-0.01619026,0.0,0.0,0.0,0.008847373,-0.006656031,0.9999387,0.9999609,5.8890695e-05,-0.008847177,0.0,-0.9999779,-0.006656292,0.024169467,0.0030047186,-0.0118637085,-0.002907059,-0.0038486826,0.0024826308,0.0,0.0,0.0025412217,0.024658203
-0.00087932684,-0.0009033079,-0.00019185338,0.00091663934,0.006427074,-0.015657336,0.0,0.0,0.0,0.008847373,-0.006656031,0.9999387,0.9999609,5.8890695e-05,-0.008847177,0.0,-0.9999779,-0.006656292,0.03853468,-0.024528604,0.046793938,-0.0026998501,-0.0039520822,0.0027041873,0.0,0.0,0.0025412217,0.024597168
-7.9941005e-05,0.0016280856,0.0020730775,0.0031815693,0.010290779,-0.01512441,0.0,0.0,0.0,0.008847373,-0.006656031,0.9999387,0.9999609,5.8890695e-05,-0.008847177,0.0,-0.9999779,-0.006656292,-0.002166748,-0.0065720864,-0.0453825,-0.0026971847,-0.003965182,0.0024637538,0.0,0.0,0.0025412217,0.025115967
-0.0016787145,0.0005622357,-0.0019238596,0.0006501768,0.0057609174,-0.015923798,0.0,0.0,0.0,0.008847373,-0.006656031,0.9999387,0.9999609,5.8890695e-05,-0.008847177,0.0,-0.9999779,-0.006656292,-0.039276876,0.026946735,0.020458221,-0.002880083,-0.0038106225,0.002553726,0.0,0.0,0.0025412217,0.024658203
-0.0010125581,-0.0019691577,7.460918e-05,0.00091663934,0.0072264615,-0.015257642,0.0,0.0,0.0,0.008847373,-0.006656031,0.9999387,0.9999609,5.8890695e-05,-0.008847177,0.0,-0.9999779,-0.006656292,0.015789762,-0.0017836876,-0.058550835,-0.0027867337,-0.0038004878,0.0022482031,0.0,0.0,0.0025412217,0.024658203
-0.0010125581,-0.0009033079,0.0019398462,0.0015827958,0.0068267677,-0.014724717,0.0,0.0,0.0,0.008847373,-0.006656031,0.9999387,0.9999609,5.8890695e-05,-0.008847177,0.0,-0.9999779,-0.006656292,-0.04286818,-0.0017836876,0.003698349,-0.0029871408,-0.0037904037,0.0022554537,0.0,0.0,0.0025412217,0.02468872
0.0019185282,2.9310817e-05,-0.0021903221,0.0021157209,0.0066935364,-0.012593017,0.0,0.0,0.0,0.008847373,-0.006656031,0.9999387,0.9999609,5.8890695e-05,-0.008847177,0.0,-0.9999779,-0.006656292,-0.022517465,-0.026922803,0.00010681152,-0.0030847925,-0.0039060658,0.0022447107,0.0,0.0,0.0025412217,0.024597168
0.001785297,-0.002102389,0.0008739969,-0.0021476783,0.010024317,-0.015390873,0.0,0.0,0.0,0.008847373,-0.006656031,0.9999387,0.9999609,5.8890695e-05,-0.008847177,0.0,-0.9999779,-0.006656292,-0.010546453,-0.025725704,-0.03820038,-0.0031221008,-0.004015164,0.0020424852,0.0,0.0,0.0025412217,0.02468872
0.000852678,0.00029577326,0.0026060026,0.0031815693,0.0068267677,-0.016989648,0.0,0.0,0.0,0.008847373,-0.006656031,0.9999387,0.9999609,5.8890695e-05,-0.008847177,0.0,-0.9999779,-0.006656292,-0.017729059,-0.016148899,0.045597076,-0.0031951356,-0.0040758327,0.0022602582,0.0,0.0,0.0025412217,0.02456665
0.00045298412,0.0024274732,-0.0009912411,0.00025048293,0.0085587725,-0.0137920985,0.0,0.0,0.0,0.008847373,-0.006656031,0.9999387,0.9999609,5.8890695e-05,-0.008847177,0.0,-0.9999779,-0.006656292,-0.010546453,0.005398918,0.0132751465,-0.0032318921,-0.004028459,0.0023153326,0.0,0.0,0.0025412217,0.024536133
-0.00047963485,0.000695467,0.00233954,0.0041141883,0.0048282985,-0.013259173,0.0,0.0,0.0,0.008847373,-0.006656031,0.9999387,0.9999609,5.8890695e-05,-0.008847177,0.0,-0.9999779,-0.006656292,0.0050158575,-0.012557592,-0.009469986,-0.0031906534,-0.004071105,0.0022564062,0.0,0.0,0.0025412217,0.024658203
0.0005862154,0.00096192944,-0.0007247785,0.0027818754,0.0066935364,-0.016856417,0.0,0.0,0.0,0.008847373,-0.006656031,0.9999387,0.9999609,5.8890695e-05,-0.008847177,0.0,-0.9999779,-0.006656292,0.06726509,0.007793121,0.026443481,-0.0028383746,-0.0040117837,0.0023773415,0.0,0.0,0.0025412217,0.02468872
0.000852678,0.0021610106,0.00047430303,0.00091663934,0.0037624482,-0.016589954,0.0,0.0,0.0,0.008847373,-0.006656031,0.9999387,0.9999609,5.8890695e-05,-0.008847177,0.0,-0.9999779,-0.006656292,0.026563674,0.007793121,-0.021440506,-0.0026913641,-0.0039527593,0.0022582524,0.0,0.0,0.0025412217,0.024658203
-0.00034640357,-0.0009033079,0.0018066149,-0.00054890476,0.0072264615,-0.014724717,0.0,0.0,0.0,0.008847373,-0.006656031,0.9999387,0.9999609,5.8890695e-05,-0.008847177,0.0,-0.9999779,-0.006656292,0.0026216507,0.032932237,-0.0034837723,-0.0026647989,-0.0037683346,0.0022295422,0.0,0.0,0.0025412217,0.024597168
0.0020517595,-0.0019691577,-0.0012577032,0.0015827958,0.005627686,-0.014724717,0.0,0.0,0.0,0.008847373,-0.006656031,0.9999387,0.9999609,5.8890695e-05,-0.008847177,0.0,-0.9999779,-0.006656292,0.00022745132,-0.010163393,0.015669823,-0.0026503378,-0.00380031,0.0022967437,0.0,0.0,0.0025412217,0.02508545
0.0005862154,-0.0039676265,0.002739234,0.003048338,0.0076261554,-0.0137920985,0.0,0.0,0.0,0.008847373,-0.006656031,0.9999387,0.9999609,5.8890695e-05,-0.008847177,0.0,-0.9999779,-0.006656292,-0.018926162,0.0018076152,0.038414,-0.0027317167,-0.0037722704,0.00247733,0.0,0.0,0.0025412217,0.02456665
0.0005862154,-0.0010365391,0.0018066149,0.0010498706,0.006959999,-0.015524104,0.0,0.0,0.0,0.008847373,-0.006656031,0.9999387,0.9999609,5.8890695e-05,-0.008847177,0.0,-0.9999779,-0.006656292,-0.01653196,0.01856703,0.07073593,-0.002800718,-0.0036605739,0.002818623,0.0,0.0,0.0025412217,0.024597168
0.000852678,-0.0017026954,-0.0013909345,0.00091663934,0.007892616,-0.015524104,0.0,0.0,0.0,0.008847373,-0.006656031,0.9999387,0.9999609,5.8890695e-05,-0.008847177,0.0,-0.9999779,-0.006656292,-0.01413776,0.0018076152,0.03123188,-0.0028574031,-0.003633233,0.0029606894,0.0,0.0,0.0025412217,0.02468872
0.00031975284,0.0026939358,0.0008739969,0.0023821816,0.010557242,-0.015524104,0.0,0.0,0.0,0.008847373,-0.006656031,0.9999387,0.9999609,5.8890695e-05,-0.008847177,0.0,-0.9999779,-0.006656292,-0.035685573,-0.055653226,0.0013046265,-0.003021544,-0.003893333,0.0029524092,0.0,0.0,0.0025412217,0.024597168
0.000852678,0.00029577326,-0.00019185338,0.0010498706,0.0072264615,-0.015657336,0.0,0.0,0.0,0.008847373,-0.006656031,0.9999387,0.9999609,5.8890695e-05,-0.008847177,0.0,-0.9999779,-0.006656292,-0.028502967,-0.025725704,0.04200554,-0.0031489513,-0.0040024947,0.003147675,0.0,0.0,0.0025412217,0.024627686
0.00018652156,-0.0029017765,-0.0027232468,0.0003837142,0.008025847,-0.014191791,0.0,0.0,0.0,0.008847373,-0.006656031,0.9999387,0.9999609,5.8890695e-05,-0.008847177,0.0,-0.9999779,-0.006656292,-0.01294066,0.059268456,0.046793938,-0.00319791,-0.0036861403,0.0033659062,0.0,0.0,0.0025412217,0.024597168
-0.00034640357,-0.0051667076,0.00047430303,0.001716027,0.006560305,-0.016989648,0.0,0.0,0.0,0.008847373,-0.006656031,0.9999387,0.9999609,5.8890695e-05,-0.008847177,0.0,-0.9999779,-0.006656292,0.011001363,-0.010163393,-0.042988777,-0.0031269137,-0.0037185266,0.0031341328,0.0,0.0,0.0025412217,0.02456665
-0.0011457894,0.0018945482,0.0010072282,0.0037144944,0.010024317,-0.012726248,0.0,0.0,0.0,0.008847373,-0.006656031,0.9999387,0.9999609,5.8890695e-05,-0.008847177,0.0,-0.9999779,-0.006656292,-0.021320362,0.01976413,-0.11481476,-0.0032178808,-0.0036011133,0.0025443884,0.0,0.0,-0.00028640009,0.024627686
-0.0011457894,0.0018945482,0.0031389277,0.0010498706,0.006560305,-0.0137920985,0.0,0.0,0.0,0.008847373,-0.006656031,0.9999387,0.9999609,5.8890695e-05,-0.008847177,0.0,-0.9999779,-0.006656292,0.03973178,0.03532644,-0.037002563,-0.0030031328,-0.0034064758,0.0023466537,0.0,0.0,-0.00028640009,0.024719238
5.3290278e-05,0.0017613169,0.001406922,0.00025048293,0.008825235,-0.014591485,0.0,0.0,0.0,0.008847373,-0.006656031,0.9999387,0.9999609,5.8890695e-05,-0.008847177,0.0,-0.9999779,-0.006656292,0.012198463,0.030538036,-0.016652107,-0.0029271247,-0.0032367534,0.00225166,0.0,0.0,-0.00028640009,0.024597168
-0.00047963485,-0.0026353141,-0.0019238596,0.0037144944,0.00829231,-0.0137920985,0.0,0.0,0.0,0.008847373,-0.006656031,0.9999387,0.9999609,5.8890695e-05,-0.008847177,0.0,-0.9999779,-0.006656292,0.032549173,-0.012557592,0.014472008,-0.0027497434,-0.0032833575,0.0023127617,0.0,0.0,-0.00028640009,0.024597168
-0.0016787145,0.0013616233,-0.0015241657,0.0033148006,0.005494455,-0.015657336,0.0,0.0,0.0,0.008847373,-0.006656031,0.9999387,0.9999609,5.8890695e-05,-0.008847177,0.0,-0.9999779,-0.006656292,0.020578168,0.0030047186,-0.026228905,-0.0026331039,-0.0032519172,0.0021700535,0.0,0.0,-0.00028640009,0.025054932
-0.0027445648,0.001228392,-0.0008580098,0.003048338,0.0068267677,-0.013525636,0.0,0.0,0.0,0.008847373,-0.006656031,0.9999387,0.9999609,5.8890695e-05,-0.008847177,0.0,-0.9999779,-0.006656292,-0.023714565,-0.03051411,0.045597076,-0.0027385112,-0.0033882284,0.0023871886,0.0,0.0,-0.00028640009,0.02456665
-0.0015454832,0.00082869816,0.0006075343,0.0027818754,0.00829231,-0.013658867,0.0,0.0,0.0,0.008847373,-0.006656031,0.9999387,0.9999609,5.8890695e-05,-0.008847177,0.0,-0.9999779,-0.006656292,-0.028502967,-0.0017836876,-0.032214165,-0.0028673336,-0.0033802055,0.002214182,0.0,0.0,-0.00028640009,0.024597168
-0.00047963485,-0.0013030017,0.00020784047,0.0021157209,0.0085587725,-0.01512441,0.0,0.0,0.0,0.008847373,-0.006656031,0.9999387,0.9999609,5.8890695e-05,-0.008847177,0.0,-0.9999779,-0.006656292,-0.062021792,-0.011360493,-0.010666847,-0.003163106,-0.003420107,0.0021497768,0.0,0.0,-0.00028640009,0.024658203
0.0011191405,0.0018945482,0.0011404594,0.003048338,0.0037624482,-0.014724717,0.0,0.0,0.0,0.008847373,-0.006656031,0.9999387,0.9999609,5.8890695e-05,-0.008847177,0.0,-0.9999779,-0.006656292,-0.029700067,-0.0053749867,0.030035019,-0.0032957909,-0.0034298815,0.002289203,0.0,0.0,-0.00028640009,0.024627686
-0.00087932684,-0.0017026954,-0.0047217156,0.0023821816,0.0026965998,-0.014458254,0.0,0.0,0.0,0.008847373,-0.006656031,0.9999387,0.9999609,5.8890695e-05,-0.008847177,0.0,-0.9999779,-0.006656292,-0.04286818,-0.0077691935,0.02524662,-0.0034936527,-0.003451578,0.0024039901,0.0,0.0,-0.00028640009,0.024597168
-0.0011457894,0.00096192944,0.00034107175,0.00025048293,0.0044286046,-0.014191791,0.0,0.0,0.0,0.008847373,-0.006656031,0.9999387,0.9999609,5.8890695e-05,-0.008847177,0.0,-0.9999779,-0.006656292,-0.0045609474,-0.040090915,0.0072898865,-0.0034989892,-0.0036347748,0.0024284197,0.0,0.0,-0.00028640009,0.02456665
-0.00087932684,0.0021610106,-5.86221e-05,0.0015827958,0.0053612236,-0.014058561,0.0,0.0,0.0,0.008847373,-0.006656031,0.9999387,0.9999609,5.8890695e-05,-0.008847177,0.0,-0.9999779,-0.006656292,0.013395563,-0.0005865842,0.0013046265,-0.0034145163,-0.003619534,0.0024228008,0.0,0.0,-0.00028640009,0.02456665
0.0012523718,0.00082869816,-0.0008580098,0.006778814,0.0085587725,-0.014591485,0.0,0.0,0.0,0.008847373,-0.006656031,0.9999387,0.9999609,5.8890695e-05,-0.008847177,0.0,-0.9999779,-0.006656292,0.052899882,-0.0065720864,0.0432024,-0.0031329445,-0.0036342966,0.0026266987,0.0,0.0,-0.00028640009,0.02468872
-0.00061286613,-0.000103920465,-0.0031229407,-0.0002824422,0.0070932303,-0.013392405,0.0,0.0,0.0,0.008847373,-0.006656031,0.9999387,0.9999609,5.8890695e-05,-0.008847177,0.0,-0.9999779,-0.006656292,0.019381069,0.0018076152,0.00010681152,-0.0030203746,-0.003607087,0.0026140993,0.0,0.0,-0.00028640009,0.02468872
0.0037837643,0.00016254198,-5.86221e-05,0.0029151067,0.0053612236,-0.014724717,0.0,0.0,0.0,0.008847373,-0.006656031,0.9999387,0.9999609,5.8890695e-05,-0.008847177,0.0,-0.9999779,-0.006656292,-0.021320362,0.0042018183,0.062355995,-0.0031118745,-0.0035680425,0.002912809,0.0,0.0,-0.00028640009,0.024627686
5.3290278e-05,0.00096192944,0.0024727713,0.00025048293,0.008025847,-0.015257642,0.0,0.0,0.0,0.008847373,-0.006656031,0.9999387,0.9999609,5.8890695e-05,-0.008847177,0.0,-0.9999779,-0.006656292,-0.0057580546,0.030538036,-0.0034837723,-0.0031251053,-0.0033975122,0.0028808261,0.0,0.0,-0.00028640009,0.02520752
0.0044499207,0.0017613169,-0.0021903221,0.0018492583,0.006560305,-0.014325023,0.0,0.0,0.0,0.008847373,-0.006656031,0.9999387,0.9999609,5.8890695e-05,-0.008847177,0.0,-0.9999779,-0.006656292,-0.0823725,0.03652354,0.0025014877,-0.0035213423,-0.003197907,0.0028789295,0.0,0.0,-0.00028640009,0.02456665
0.002717916,0.0026939358,-0.0015241657,0.0025154129,0.0057609174,-0.012060092,0.0,0.0,0.0,0.008847373,-0.006656031,0.9999387,0.9999609,5.8890695e-05,-0.008847177,0.0,-0.9999779,-0.006656292,-0.03329137,-0.010163393,-0.026228905,-0.0036701926,-0.0032327345,0.0027333905,0.0,0.0,-0.00028640009,0.024536133
-0.0010125581,0.00029577326,0.0010072282,0.0005169455,0.0052279923,-0.014458254,0.0,0.0,0.0,0.008847373,-0.006656031,0.9999387,0.9999609,5.8890695e-05,-0.008847177,0.0,-0.9999779,-0.006656292,-0.0033638477,-0.012557592,-0.017848969,-0.0036686608,-0.0032793588,0.0026304787,0.0,0.0,-0.00028640009,0.024597168
0.002717916,0.0018945482,-0.00019185338,0.0031815693,0.0070932303,-0.01392533,0.0,0.0,0.0,0.008847373,-0.006656031,0.9999387,0.9999609,5.8890695e-05,-0.008847177,0.0,-0.9999779,-0.006656292,-0.06681019,-0.03649961,0.03123188,-0.0039843684,-0.00344546,0.0027734856,0.0,0.0,-0.00028640009,0.024627686
-0.00021317229,0.00082869816,0.00047430303,-1.5979633e-05,0.0062938426,-0.01512441,0.0,0.0,0.0,0.008847373,-0.006656031,0.9999387,0.9999609,5.8890695e-05,-0.008847177,0.0,-0.9999779,-0.006656292,-0.023714565,0.020961229,-0.004681587,-0.004083019,-0.0033234265,0.0027362104,0.0,0.0,-0.00028640009,0.024597168
0.001785297,-0.0010365391,-0.0005915472,-0.0010818299,0.00829231,-0.014724717,0.0,0.0,0.0,0.008847373,-0.006656031,0.9999387,0.9999609,5.8890695e-05,-0.008847177,0.0,-0.9999779,-0.006656292,0.03614048,0.0030047186,0.044400215,-0.0038819017,-0.0032917857,0.0029445302,0.0,0.0,-0.00028640009,0.024597168
-0.0011457894,-0.0034347014,0.0019398462,0.0029151067,0.0057609174,-0.015790567,0.0,0.0,0.0,0.008847373,-0.006656031,0.9999387,0.9999609,5.8890695e-05,-0.008847177,0.0,-0.9999779,-0.006656292,0.016986862,0.0042018183,-0.027425766,-0.003777558,-0.003254318,0.0027926788,0.0,0.0,-0.00028640009,0.024597168
0.0007194467,-0.0019691577,-5.86221e-05,0.0014495645,0.010956936,-0.01392533,0.0,0.0,0.0,0.008847373,-0.006656031,0.9999387,0.9999609,5.8890695e-05,-0.008847177,0.0,-0.9999779,-0.006656292,0.026563674,-0.010163393,0.039611816,-0.0036258518,-0.0032888632,0.0029767745,0.0,0.0,-0.00028640009,0.02456665
0.0019185282,-0.0005036142,0.0006075343,0.0006501768,0.00829231,-0.015657336,0.0,0.0,0.0,0.008847373,-0.006656031,0.9999387,0.9999609,5.8890695e-05,-0.008847177,0.0,-0.9999779,-0.006656292,0.009804256,-0.0077691935,0.009683609,-0.0035587011,-0.0033112648,0.0030103086,0.0,0.0,-0.00028640009,0.024597168
0.0009859093,0.0021610106,0.00034107175,-0.0040129162,0.0068267677,-0.013259173,0.0,0.0,0.0,0.008847373,-0.006656031,0.9999387,0.9999609,5.8890695e-05,-0.008847177,0.0,-0.9999779,-0.006656292,0.03853468,-0.022134397,0.0432024,-0.0033482343,-0.0034053805,0.003211269,0.0,0.0,-0.00028640009,0.024627686
0.0011191405,-0.0009033079,0.0034053903,0.00025048293,0.0077593867,-0.013259173,0.0,0.0,0.0,0.008847373,-0.006656031,0.9999387,0.9999609,5.8890695e-05,-0.008847177,0.0,-0.9999779,-0.006656292,0.048111483,-0.022134397,-0.0058784485,-0.0030909358,-0.0034990257,0.0031658204,0.0,0.0,-0.00028640009,0.024597168
0.004982846,-0.0010365391,-0.0008580098,-0.0021476783,0.009224929,-0.0137920985,0.0,0.0,0.0,0.008847373,-0.006656031,0.9999387,0.9999609,5.8890695e-05,-0.008847177,0.0,-0.9999779,-0.006656292,0.03853468,-0.0065720864,0.050385475,-0.0028828077,-0.003514391,0.0034019188,0.0,0.0,-0.00028640009,0.025115967
0.0019185282,-0.004234089,-5.86221e-05,-0.0024141409,0.0077593867,-0.013259173,0.0,0.0,0.0,0.008847373,-0.006656031,0.9999387,0.9999609,5.8890695e-05,-0.008847177,0.0,-0.9999779,-0.006656292,0.016986862,-0.024528604,-0.016652107,-0.0027834594,-0.003619462,0.0033016487,0.0,0.0,-0.00028640009,0.02456665
0.006848084,-0.0031682388,0.0015401524,-0.0061446168,0.011223398,-0.014458254,0.0,0.0,0.0,0.008847373,-0.006656031,0.9999387,0.9999609,5.8890695e-05,-0.008847177,0.0,-0.9999779,-0.006656292,-0.01653196,-0.019740198,-0.01306057,-0.002852202,-0.003700066,0.0032198376,0.0,0.0,-0.00028640009,0.02456665
0.018972127,-0.007964564,-0.0031229407,-0.016803116,0.0176185,-0.014458254,0.0,0.0,0.0,0.008847373,-0.006656031,0.9999387,0.9999609,5.8890695e-05,-0.008847177,0.0,-0.9999779,-0.006656292,0.001424551,0.013778623,-0.027425766,-0.002830818,-0.0036126724,0.0030666096,0.0,0.0,-0.00028640009,0.024627686
0.024834301,-0.008497489,-0.0024567842,-0.018401891,0.01562003,-0.013658867,0.021618096,0.0,0.0,0.008847373,-0.0061230003,0.9999423,0.9999609,5.417459e-05,-0.008847209,0.0,-0.9999812,-0.0061232387,-0.034488473,-0.0041358434,-0.019078255,-0.0029891063,-0.0036152885,0.0029558854,0.0,0.0,-0.00028640009,0.024658203
0.005116077,-0.00649902,0.00020784047,0.0003837142,0.01455418,-0.015657336,0.0,0.0,0.0,0.008847373,-0.0061230003,0.9999423,0.9999609,5.417459e-05,-0.008847209,0.0,-0.9999813,-0.006123239,0.03494338,0.0593105,0.030003548,-0.002799444,-0.0033006596,0.0030911237,0.0,0.0,-0.00028640009,0.024597168
-0.019531703,-0.0006368454,0.0006075343,0.014772687,0.0042953733,-0.01925458,0.0,0.0,0.0,0.008847373,-0.0061230003,0.9999423,0.9999609,5.417459e-05,-0.008847209,0.0,-0.9999813,-0.006123239,-0.022517465,-0.10828361,-0.015486717,-0.002898034,-0.0038255744,0.0029982345,0.0,-0.0026601655,-0.00028640009,0.02456665
0.02256937,-0.015691975,-0.0017906283,-0.021199746,0.021615434,-0.018588424,0.021884557,0.0,0.0,0.008847373,-0.005586069,0.9999456,0.9999609,4.9423972e-05,-0.008847238,0.0,-0.99998444,-0.0055862865,-0.026108764,0.003054075,0.021594048,-0.0030140874,-0.003791176,0.0030912135,0.0,-0.0026601655,-0.00028640009,0.024536133
-7.9941005e-05,-0.007031945,-0.0008580098,0.00091663934,0.014154486,-0.01712288,0.0,0.0,0.0,0.008847373,-0.005586069,0.9999456,0.9999609,4.9423972e-05,-0.008847238,0.0,-0.99998444,-0.0055862865,0.075644806,-0.019690841,-0.007136345,-0.002620793,-0.0038706744,0.0030400758,0.0,-0.0026601655,-0.00028640009,0.024627686
-0.0020784084,-0.01076242,-0.08146291,0.0010498706,0.010823704,-0.1089192,0.0,0.0,-0.09519106,0.008860468,-0.005565328,0.9999456,0.99995804,0.002393661,-0.008847213,0.0023442926,-0.9999817,-0.005586271,-0.011860162,-0.10486969,-0.010727882,-0.0026669898,-0.0043756696,0.002971236,0.0,-0.0052428637,-0.00028640009,0.024627686
-0.07175835,0.017882297,-0.10691008,0.055807907,-0.009960369,-0.12583956,-0.06378313,0.0,-0.11637482,0.008876458,-0.0071145087,0.9999368,0.999947,0.0052805957,-0.008843407,0.0052173575,-0.9999608,-0.007160928,0.014333673,0.019058231,0.034840584,-0.0025819866,-0.0042585004,0.0031305826,0.0,-0.0052428637,-0.00028640009,0.02468872
-0.03538622,0.0048256353,-0.0626773,0.0310269,0.0014975183,-0.080407724,-0.03320656,0.0,-0.07154252,0.008888993,-0.007916618,0.999931,0.99993616,0.0070496504,-0.0088390745,0.0069792015,-0.99994385,-0.0079786815,0.03217856,0.08007013,0.004963875,-0.0024081839,-0.0038368574,0.003139749,0.0,-0.0052428637,-0.00028640009,0.024627686
-0.076154985,0.011886892,-0.068139784,0.074593514,-0.0036984999,-0.089600675,-0.075374246,0.0,-0.07887023,0.008904733,-0.009798813,0.99991596,0.9999201,0.009054422,-0.008825663,0.008967178,-0.999911,-0.009878535,0.028447114,0.115983695,0.12002087,-0.0022539075,-0.0032377546,0.0037241546,0.0,-0.0023192025,0.0027390283,0.02520752
-0.072024815,0.0049588666,-0.02230824,0.06659964,0.0038956795,-0.044435285,-0.06931223,0.0,-0.03337176,0.008912776,-0.011496244,0.99989927,0.9999123,0.009890251,-0.008810223,0.009787938,-0.999885,-0.011583247,0.12893195,-0.014947869,0.010035515,-0.0015979783,-0.0032963052,0.0037557113,0.003171361,-0.0023192025,0.0027390283,0.024597168
-0.01513507,-0.010495957,-0.019643614,0.013307143,0.021748666,-0.04390236,0.0,0.0,-0.031772986,0.008921738,-0.011489295,0.99989927,0.9999043,0.010669765,-0.00881022,0.01056743,-0.99987704,-0.0115832435,0.0031565726,-0.22809371,0.08425617,-0.0015742055,-0.004420292,0.0041582137,0.003171361,-0.00791574,0.0027390283,0.024536133
-0.023395406,-0.034077886,-0.03629752,0.028229043,0.037736416,-0.058424566,-0.025812224,-0.03590715,-0.047361042,0.0098193595,-0.01211452,0.99988407,0.99988294,0.011841634,-0.009687653,0.011723426,-0.99985653,-0.012228196,-0.070676826,0.19645889,0.06284237,-0.0019197185,-0.0034158966,0.004451635,0.003171361,-0.003077412,0.0027390283,0.024627686
-0.05483798,-0.034877274,0.006469709,0.056873757,0.05012692,-0.013525636,-0.05585587,-0.042502098,0.0,0.010867263,-0.013491666,0.99985707,0.9998723,0.011854972,-0.010719242,0.0117106,-0.9998387,-0.013617577,-0.002196297,0.049507245,0.049916267,-0.0019211014,-0.0031512808,0.004678958,0.003171361,-0.003077412,0.0027390283,0.024658203
0.0005862154,-0.060724135,0.009534027,0.0033148006,0.06997837,-0.012593017,0.0,-0.065351255,0.0,0.012474489,-0.013491666,0.9998396,0.9998538,0.011854956,-0.012326476,0.01168871,-0.9998387,-0.013636401,-0.016507804,-0.054640524,0.11950302,-0.0019940347,-0.003408727,0.0052530784,0.003171361,-0.003077412,0.005678464,0.024597168
0.021237057,-0.0005036142,-0.016446065,-0.012672948,0.0029630624,-0.03617495,0.0,0.0,-0.026310507,0.01248321,-0.013483603,0.9998396,0.99984586,0.012501219,-0.012326473,0.012334965,-0.999831,-0.013636399,0.068408705,0.15478031,0.21287727,-0.0016420209,-0.0026177817,0.0062911995,0.003171361,0.0007250218,0.010908145,0.02456665
0.02163675,-0.009430107,-0.081862606,-0.040118583,0.021348972,-0.09466346,0.030877667,0.0,-0.088263035,0.012512447,-0.012698095,0.99984986,0.9998165,0.0146598285,-0.012335928,0.014502886,-0.9998119,-0.012877931,-0.06353273,-0.05213006,-0.0793066,-0.0019514745,-0.0028653434,0.0058632107,0.003171361,0.0007250218,0.010908145,0.02456665
0.14101194,-0.041938532,-0.028170414,-0.14443864,0.05612233,-0.021785973,0.14272529,-0.04903043,-0.024978194,0.013727583,-0.009175932,0.99987936,0.9997916,0.015231495,-0.013594729,0.01510228,-0.9998419,-0.009381051,-0.028863043,-0.057156846,0.29512215,-0.0020860324,-0.0031368008,0.0073095053,0.003171361,0.0007250218,0.018176321,0.024627686
