InpGyro_1X,InpGyro_1Y,InpGyro_1Z,InpGyro_2X,InpGyro_2Y,InpGyro_2Z,GyroX,GyroY,GyroZ,ExpGravityX,ExpGravityY,ExpGravityZ,ExpOxX,ExpOxY,ExpOxZ,ExpOyX,ExpOyY,ExpOyZ,AccX,AccY,AccZ,AccNoiseX,AccNoiseY,AccNoiseZ,ExpSpeedX,ExpSpeedY,ExpSpeedZ,dT
-0.03397396635561481,0.00013323124061025415,0.010658499248820334,0.02744563556571236,0.03144257278401998,-0.015454823910789483,0.0,0.0,0.0,0.005017768,0.0032979306,0.99998194,0.9999875,-1.654846e-05,-0.0050177407,-1.8189894e-12,-0.9999946,0.0032979725,-0.05287594,0.068917096,0.002943039,-0.0002643797,0.00034458548,1.4715194e-05,0.0,0.0,0.0,0.0069122314
-0.03130934154340973,0.001732006127933304,0.0039969372183076245,0.030909647821578966,0.03317457891195329,-0.016254211354451008,0.0,0.0,0.0,0.005017768,0.0032979306,0.99998194,0.9999875,-1.654846e-05,-0.0050177407,-1.8189894e-12,-0.9999946,0.0032979725,-0.03611653,0.013850458,0.049630165,-0.00044364046,0.00041211484,0.00026279243,0.0,0.0,0.0,0.027618408
-0.03064318534035846,0.0039969372183076245,0.007860643196004996,0.031575804024630234,0.03464012255866608,-0.015188361429568975,0.0,0.0,0.0,0.005017768,0.0032979306,0.99998194,0.9999875,-1.654846e-05,-0.0050177407,-1.8189894e-12,-0.9999946,0.0032979725,0.09676166,0.0066678524,0.014914513,4.2386033e-05,0.0004433935,0.00033605105,0.0,0.0,0.0,0.027542114
-0.03037672285913795,0.0009326186842717792,0.008127105677225504,0.031575804024630234,0.035705972483548114,-0.01572128639200999,0.0,0.0,0.0,0.005017768,0.0032979306,0.99998194,0.9999875,-1.654846e-05,-0.0050177407,-1.8189894e-12,-0.9999946,0.0032979725,-0.02294842,0.010259155,-0.017407417,-7.2568e-05,0.0004924723,0.00024733372,0.0,0.0,0.0,0.027557373
-0.029577335415476424,0.0031975497746461,0.0075941807147844875,0.027978560528153375,0.033041347671343035,-0.013056661579804908,0.0,0.0,0.0,0.005017768,0.0032979306,0.99998194,0.9999875,-1.654846e-05,-0.0050177407,-1.8189894e-12,-0.9999946,0.0032979725,-0.0025977045,0.019835964,-0.060503006,-8.5193686e-05,0.00058918976,-5.641798e-05,0.0,0.0,0.0,0.027496338
-0.02691271060327134,0.002398162330984575,0.011724349173702367,0.031842266505850744,0.032774885190122525,-0.01572128639200999,0.0,0.0,0.0,0.005017768,0.0032979306,0.99998194,0.9999875,-1.654846e-05,-0.0050177407,-1.8189894e-12,-0.9999946,0.0032979725,0.05007473,0.038989577,0.011322975,0.00016560593,0.0007811917,4.7898357e-07,0.0,0.0,0.0,0.027496338
-0.0287779479718149,0.0039969372183076245,0.0095926493239383,0.03064318534035846,0.033041347671343035,-0.015454823910789483,0.0,0.0,0.0,0.005017768,0.0032979306,0.99998194,0.9999875,-1.654846e-05,-0.0050177407,-1.8189894e-12,-0.9999946,0.0032979725,0.016555909,-0.029245172,0.0017461777,0.00024755744,0.00063105987,9.207477e-06,0.0,0.0,0.0,0.02748108
-0.0305099540997482,0.0035972434964768626,0.009992343045769061,0.030909647821578966,0.03384073511500456,-0.0191852986478766,0.0,0.0,0.0,0.005017768,0.0032979306,0.99998194,0.9999875,-1.654846e-05,-0.0050177407,-1.8189894e-12,-0.9999946,0.0032979725,-0.0049919076,0.01744176,0.025688171,0.00022136013,0.00071511336,0.00013760228,0.0,0.0,0.0,0.02746582
-0.03144257278401998,0.002398162330984575,0.009459418083328047,0.031842266505850744,0.03450689131805583,-0.01372281778285618,0.0,0.0,0.0,0.005017768,0.0032979306,0.99998194,0.9999875,-1.654846e-05,-0.0050177407,-1.8189894e-12,-0.9999946,0.0032979725,-0.0025977045,-0.0053031556,-0.030575752,0.0002072648,0.000685022,-1.5964484e-05,0.0,0.0,0.0,0.02746582
-0.028644716731204646,0.0019984686091538122,0.007727411955394742,0.03317457891195329,0.03170903526524049,-0.01705359879811253,0.0,0.0,0.0,0.005017768,0.0032979306,0.99998194,0.9999875,-1.654846e-05,-0.0050177407,-1.8189894e-12,-0.9999946,0.0032979725,-0.07442375,0.004273653,-0.00064754486,-0.00016589028,0.00070296513,-1.9122386e-05,0.0,0.0,0.0,0.02746582
-0.029843797896696934,0.004396630940138387,0.012390505376753637,0.031842266505850744,0.036105666205378875,-0.014522205226517705,0.0,0.0,0.0,0.005017768,0.0032979306,0.99998194,0.9999875,-1.654846e-05,-0.0050177407,-1.8189894e-12,-0.9999946,0.0032979725,-0.01097741,-0.048398785,0.029279709,-0.00021994788,0.0004574564,0.00012737176,0.0,0.0,0.0,0.02748108
-0.026779479362661087,0.002797856052815337,0.0075941807147844875,0.031975497746460996,0.03370750387439431,-0.016520673835671518,0.0,0.0,0.0,0.005017768,0.0032979306,0.99998194,0.9999875,-1.654846e-05,-0.0050177407,-1.8189894e-12,-0.9999946,0.0032979725,-0.019357117,0.031806972,0.053221703,-0.00031563372,0.000614204,0.00039284342,0.0,0.0,0.0,0.027526855
-0.032241960227681506,0.004529862180748642,0.011191424211261349,0.0334410413931738,0.03464012255866608,-0.015454823910789483,0.0,0.0,0.0,0.005017768,0.0032979306,0.99998194,0.9999875,-1.654846e-05,-0.0050177407,-1.8189894e-12,-0.9999946,0.0032979725,-0.018160015,0.021033064,0.0627985,-0.00040485564,0.00071629824,0.0007048717,0.0,0.0,0.0,0.02772522
-0.02717917308449185,0.0021316998497640663,0.009992343045769061,0.03397396635561481,0.03410719759622506,-0.017586523760553547,0.0,0.0,0.0,0.005017768,0.0032979306,0.99998194,0.9999875,-1.654846e-05,-0.0050177407,-1.8189894e-12,-0.9999946,0.0032979725,-0.0014006048,-0.044807483,0.01850605,-0.00040983438,0.0004886794,0.00079387764,0.0,0.0,0.0,0.027526855
-0.0302434916185277,0.005196018383799912,0.009326186842717792,0.0302434916185277,0.02904441045303541,-0.018785604926045835,0.0,0.0,0.0,0.005017768,0.0032979306,0.99998194,0.9999875,-1.654846e-05,-0.0050177407,-1.8189894e-12,-0.9999946,0.0032979725,-0.016962916,-0.016077062,-0.042546272,-0.0004925998,0.0004058507,0.00057717686,0.0,0.0,0.0,0.02748108
-0.02904441045303541,0.002264931090374321,0.009459418083328047,0.029177641693645662,0.03317457891195329,-0.015588055151399738,0.0,0.0,0.0,0.005017768,0.0032979306,0.99998194,0.9999875,-1.654846e-05,-0.0050177407,-1.8189894e-12,-0.9999946,0.0032979725,-0.07801506,0.011456255,-0.0042390823,-0.00088021206,0.0004611027,0.0005530956,0.0,0.0,0.0,0.027435303
-0.03064318534035846,-0.0002664624812205083,0.007061255752343471,0.03130934154340973,0.02971056665608668,-0.014921898948348467,0.0,0.0,0.0,0.005017768,0.0032979306,0.99998194,0.9999875,-1.654846e-05,-0.0050177407,-1.8189894e-12,-0.9999946,0.0032979725,-0.03611653,0.013850458,0.029279709,-0.0010563936,0.0005280495,0.00069672865,0.0,0.0,0.0,0.027435303
-0.02851148549059439,0.0031975497746461,0.00866003063966652,0.032241960227681506,0.03290811643073278,-0.01212404289553313,0.0,0.0,0.0,0.005017768,0.0032979306,0.99998194,0.9999875,-1.654846e-05,-0.0050177407,-1.8189894e-12,-0.9999946,0.0032979725,-0.020554218,-0.050792985,-0.011422157,-0.0011538827,0.00027144433,0.00063613424,0.0,0.0,0.0,0.027450562
-0.0305099540997482,0.0006661562030512709,0.009725880564548555,0.02851148549059439,0.03557274124293786,-0.016254211354451008,0.0,0.0,0.0,0.005017768,0.0032979306,0.99998194,0.9999875,-1.654846e-05,-0.0050177407,-1.8189894e-12,-0.9999946,0.0032979725,0.027329814,-0.023259668,-0.015012741,-0.0010114643,0.00015378876,0.00055788987,0.0,0.0,0.0,0.027450562
-0.03144257278401998,0.004263399699528133,0.00866003063966652,0.03064318534035846,0.03317457891195329,-0.01505513018895872,0.0,0.0,0.0,0.005017768,0.0032979306,0.99998194,0.9999875,-1.654846e-05,-0.0050177407,-1.8189894e-12,-0.9999946,0.0032979725,0.0009935983,-0.0065002553,0.002943039,-0.0010014389,0.00012051854,0.00056981563,0.0,0.0,0.0,0.02746582
-0.029843797896696934,0.002531393571594829,0.009192955602107537,0.03144257278401998,0.032774885190122525,-0.01851914244482533,0.0,0.0,0.0,0.005017768,0.0032979306,0.99998194,0.9999875,-1.654846e-05,-0.0050177407,-1.8189894e-12,-0.9999946,0.0032979725,-0.034919426,-0.0005147513,0.012519836,-0.0011710289,0.00011734219,0.00062956574,0.0,0.0,0.0,0.02748108
-0.028644716731204646,-0.0005329249624410166,0.008926493120887028,0.026513016881440577,0.03557274124293786,-0.013323124061025418,0.0,0.0,0.0,0.005017768,0.0032979306,0.99998194,0.9999875,-1.654846e-05,-0.0050177407,-1.8189894e-12,-0.9999946,0.0032979725,-0.049284637,-0.010091558,-0.037757874,-0.001411597,6.629769e-05,0.00043762857,0.0,0.0,0.0,0.02746582
-0.02971056665608668,0.0019984686091538122,0.0095926493239383,0.03583920372415837,0.033307810152563545,-0.015188361429568975,0.0,0.0,0.0,0.005017768,0.0032979306,0.99998194,0.9999875,-1.654846e-05,-0.0050177407,-1.8189894e-12,-0.9999946,0.0032979725,-0.014568714,-0.098677024,-0.066488266,-0.0014773826,-0.0004274189,0.000102999096,0.0,0.0,0.0,0.027999878
-0.031176110302799476,0.0035972434964768626,0.007061255752343471,0.026646248122050836,0.036505359927209644,-0.016787136316892024,0.0,0.0,0.0,0.005017768,0.0032979306,0.99998194,0.9999875,-1.654846e-05,-0.0050177407,-1.8189894e-12,-0.9999946,0.0032979725,0.06324284,0.048566382,-0.0054359436,-0.0011537815,-0.0001824499,7.5304386e-05,0.0,0.0,0.0,0.02947998
-0.028245023009373885,0.0018652373685435584,0.009059724361497283,0.03037672285913795,0.032241960227681506,-0.013589586542245924,0.0,0.0,0.0,0.005017768,0.0032979306,0.99998194,0.9999875,-1.654846e-05,-0.0050177407,-1.8189894e-12,-0.9999946,0.0032979725,0.03092112,0.02821567,-0.025787354,-0.0009934071,-4.0459316e-05,-5.4008902e-05,0.0,0.0,0.0,0.029785156
-0.02997702913730719,0.005462480865020421,0.008793261880276773,0.029177641693645662,0.03397396635561481,-0.013323124061025418,0.0,0.0,0.0,0.005017768,0.0032979306,0.99998194,0.9999875,-1.654846e-05,-0.0050177407,-1.8189894e-12,-0.9999946,0.0032979725,-0.030131023,0.019835964,0.054418564,-0.0011390953,5.8922797e-05,0.00021835396,0.0,0.0,0.0,0.029434204
-0.02717917308449185,0.0035972434964768626,0.009326186842717792,0.028245023009373885,0.03490658503988659,-0.0127901990985844,0.0,0.0,0.0,0.005017768,0.0032979306,0.99998194,0.9999875,-1.654846e-05,-0.0050177407,-1.8189894e-12,-0.9999946,0.0032979725,-0.01097741,0.031806972,-0.04015255,-0.0011882868,0.00021766304,1.6499442e-05,0.0,0.0,0.0,0.029754639
-0.029310872934255914,0.002531393571594829,0.00866003063966652,0.033041347671343035,0.03464012255866608,-0.014655436467127957,0.0,0.0,0.0,0.005017768,0.0032979306,0.99998194,0.9999875,-1.654846e-05,-0.0050177407,-1.8189894e-12,-0.9999946,0.0032979725,0.0033877976,0.031806972,-0.020998955,-0.0011654064,0.00037560958,-8.857783e-05,0.0,0.0,0.0,0.029876709
-0.030909647821578966,0.003863705977697371,0.009459418083328047,0.03370750387439431,0.035173047521107094,-0.0127901990985844,0.0,0.0,0.0,0.005017768,0.0032979306,0.99998194,0.9999875,-1.654846e-05,-0.0050177407,-1.8189894e-12,-0.9999946,0.0032979725,-0.03731363,0.0090620555,0.053221703,-0.0013461475,0.0004190418,0.00017797358,0.0,0.0,0.0,0.029968262
-0.028644716731204646,0.005196018383799912,0.009992343045769061,0.032774885190122525,0.036505359927209644,-0.01692036755750228,0.0,0.0,0.0,0.005017768,0.0032979306,0.99998194,0.9999875,-1.654846e-05,-0.0050177407,-1.8189894e-12,-0.9999946,0.0032979725,-0.02294842,-0.031639375,0.004140854,-0.0014541588,0.00025874973,0.00019778797,0.0,0.0,0.0,0.029937744
-0.02691271060327134,-0.002264931090374321,0.009326186842717792,0.031842266505850744,0.031975497746460996,-0.013989280264076687,0.0,0.0,0.0,0.005017768,0.0032979306,0.99998194,0.9999875,-1.654846e-05,-0.0050177407,-1.8189894e-12,-0.9999946,0.0032979725,0.022541415,0.024624366,0.047236443,-0.0013341809,0.0003805778,0.00043298124,0.0,0.0,0.0,0.030059814
-0.03530627876171736,0.001732006127933304,0.011324655451871604,0.03064318534035846,0.02971056665608668,-0.018119448722994567,0.0,0.0,0.0,0.005017768,0.0032979306,0.99998194,0.9999875,-1.654846e-05,-0.0050177407,-1.8189894e-12,-0.9999946,0.0032979725,-0.016962916,-0.016077062,-0.09043026,-0.0014123246,0.0002982896,-2.133497e-05,0.0,0.0,0.0,0.029876709
-0.0305099540997482,0.005196018383799912,0.00866003063966652,0.031176110302799476,0.033307810152563545,-0.016653905076281773,0.0,0.0,0.0,0.005017768,0.0032979306,0.99998194,0.9999875,-1.654846e-05,-0.0050177407,-1.8189894e-12,-0.9999946,0.0032979725,0.026132714,-0.032836474,0.10110569,-0.0012745995,0.0001326158,0.0004843001,0.0,0.0,0.003028419,0.029953003
-0.026113323159609816,0.004663093421358896,0.008260336917835759,0.0287779479718149,0.03543951000232761,-0.015854517632620246,0.0,0.0,0.0,0.005017768,0.0032979306,0.99998194,0.9999875,-1.654846e-05,-0.0050177407,-1.8189894e-12,-0.9999946,0.0032979725,-0.086394764,0.03539827,0.005337715,-0.0017002003,0.0003089441,0.0005085672,0.0,0.0,0.003028419,0.029571533
-0.0302434916185277,0.0014655436467127959,0.00866003063966652,0.031042879062189218,0.0334410413931738,-0.017186830038722786,0.0,0.0,0.0,0.005017768,0.0032979306,0.99998194,0.9999875,-1.654846e-05,-0.0050177407,-1.8189894e-12,-0.9999946,0.0032979725,-0.00858321,0.040186677,-0.038954735,-0.0017346153,0.00050833274,0.00031125068,0.0,0.0,0.003028419,0.029830933
-0.032108728987071254,0.006928024511733216,0.0075941807147844875,0.031176110302799476,0.03384073511500456,-0.017719755001163805,0.0,0.0,0.0,0.005017768,0.0032979306,0.99998194,0.9999875,-1.654846e-05,-0.0050177407,-1.8189894e-12,-0.9999946,0.0032979725,-0.0025977045,-0.063961096,-0.0066337585,-0.0017389308,0.00018598564,0.00027652565,0.0,0.0,0.003028419,0.029769897
-0.030909647821578966,0.002797856052815337,0.00985911180515881,0.031176110302799476,0.0334410413931738,-0.016387442595061263,0.0,0.0,0.0,0.005017768,0.0032979306,0.99998194,0.9999875,-1.654846e-05,-0.0050177407,-1.8189894e-12,-0.9999946,0.0032979725,0.054863136,-0.037624877,-0.049729347,-0.0014559205,-3.0686642e-06,2.6496273e-05,0.0,0.0,0.003028419,0.030685425
-0.02971056665608668,0.0031975497746461,0.00866003063966652,0.032508422708902016,0.03384073511500456,-0.015854517632620246,0.0,0.0,0.0,0.005017768,0.0032979306,0.99998194,0.9999875,-1.654846e-05,-0.0050177407,-1.8189894e-12,-0.9999946,0.0032979725,0.018950108,0.047369283,0.011322975,-0.0013538904,0.00023379308,8.2978666e-05,0.0,0.0,0.003028419,0.030288696
-0.02691271060327134,0.0013323124061025418,0.010924961730040842,0.03424042883683532,0.03557274124293786,-0.018119448722994567,0.0,0.0,0.0,0.005017768,0.0032979306,0.99998194,0.9999875,-1.654846e-05,-0.0050177407,-1.8189894e-12,-0.9999946,0.0032979725,-0.018160015,-0.030442273,-0.028181076,-0.0014379211,8.041275e-05,-5.8341604e-05,0.0,0.0,0.003028419,0.030258179
-0.027845329287543123,0.0019984686091538122,0.008393568158446012,0.029843797896696934,0.03397396635561481,-0.015188361429568975,0.0,0.0,0.0,0.005017768,0.0032979306,0.99998194,0.9999875,-1.654846e-05,-0.0050177407,-1.8189894e-12,-0.9999946,0.0032979725,-0.04090493,-0.04121618,-0.016210556,-0.0016352561,-0.0001260702,-0.00013910267,0.0,0.0,0.003028419,0.03036499
-0.03077641658096871,0.0018652373685435584,0.007061255752343471,0.029843797896696934,0.03464012255866608,-0.018252679963604822,0.0,0.0,0.0,0.005017768,0.0032979306,0.99998194,0.9999875,-1.654846e-05,-0.0050177407,-1.8189894e-12,-0.9999946,0.0032979725,-0.012174513,-0.010091558,-0.017407417,-0.0016879523,-0.00017589764,-0.00022544425,0.0,0.0,0.003028419,0.029724121
-0.031575804024630234,0.0057289433462409285,0.010924961730040842,0.03064318534035846,0.03077641658096871,-0.012390505376753637,0.0,0.0,0.0,0.005017768,0.0032979306,0.99998194,0.9999875,-1.654846e-05,-0.0050177407,-1.8189894e-12,-0.9999946,0.0032979725,-0.01097741,-0.01128866,0.011322975,-0.0017343996,-0.00023146145,-0.00016770215,0.0,0.0,0.003028419,0.029663086
-0.03077641658096871,0.0018652373685435584,0.007860643196004996,0.03317457891195329,0.030909647821578966,-0.01505513018895872,0.0,0.0,0.0,0.005017768,0.0032979306,0.99998194,0.9999875,-1.654846e-05,-0.0050177407,-1.8189894e-12,-0.9999946,0.0032979725,0.024935614,0.0006823484,-0.029377937,-0.0016010494,-0.00022689241,-0.00031375332,0.0,0.0,0.003028419,0.02973938
-0.026113323159609816,0.0057289433462409285,0.008393568158446012,0.032774885190122525,0.032241960227681506,-0.013323124061025418,0.0,0.0,0.0,0.005017768,0.0032979306,0.99998194,0.9999875,-1.654846e-05,-0.0050177407,-1.8189894e-12,-0.9999946,0.0032979725,-0.013371613,0.047369283,0.044841766,-0.0016599023,1.10884575e-05,-8.797574e-05,0.0,0.0,0.003028419,0.030044556
-0.03264165394951227,0.0029310872934255917,0.007194486992953725,0.032508422708902016,0.0334410413931738,-0.016120980113840753,0.0,0.0,0.0,0.005017768,0.0032979306,0.99998194,0.9999875,-1.654846e-05,-0.0050177407,-1.8189894e-12,-0.9999946,0.0032979725,-0.034919426,-0.016077062,-0.04015255,-0.0018261999,-6.9352296e-05,-0.00028829862,0.0,0.0,0.003028419,0.03024292
-0.02997702913730719,0.004130168458917879,0.007061255752343471,0.03264165394951227,0.032108728987071254,-0.018119448722994567,0.0,0.0,0.0,0.005017768,0.0032979306,0.99998194,0.9999875,-1.654846e-05,-0.0050177407,-1.8189894e-12,-0.9999946,0.0032979725,0.010570403,-0.037624877,0.049630165,-0.0017642169,-0.00025712993,-3.870632e-05,0.0,0.0,0.003028419,0.03024292
-0.027978560528153375,0.004529862180748642,0.007993874436615249,0.03290811643073278,0.03437366007744557,-0.01732006127933304,0.0,0.0,0.0,0.005017768,0.0032979306,0.99998194,0.9999875,-1.654846e-05,-0.0050177407,-1.8189894e-12,-0.9999946,0.0032979725,0.024935614,0.041383777,-0.012619019,-0.0016307179,-4.8925387e-05,-0.000101607875,0.0,0.0,0.003028419,0.02999878
-0.029177641693645662,0.0035972434964768626,0.010924961730040842,0.03370750387439431,0.036238897445989134,-0.017719755001163805,0.0,0.0,0.0,0.005017768,0.0032979306,0.99998194,0.9999875,-1.654846e-05,-0.0050177407,-1.8189894e-12,-0.9999946,0.0032979725,-0.0049919076,0.030609868,-0.054517746,-0.0016475238,0.00010436857,-0.00037368856,0.0,0.0,0.003028419,0.029937744
-0.03064318534035846,0.004130168458917879,0.008260336917835759,0.031975497746460996,0.035173047521107094,-0.01532159267017923,0.0,0.0,0.0,0.005017768,0.0032979306,0.99998194,0.9999875,-1.654846e-05,-0.0050177407,-1.8189894e-12,-0.9999946,0.0032979725,0.04528633,0.015047558,0.047236443,-0.0014128545,0.00017908451,-0.0001356379,0.0,0.0,0.003028419,0.030441284
-0.031842266505850744,0.0035972434964768626,0.011457886692481857,0.031842266505850744,0.0334410413931738,-0.017453292519943295,0.0,0.0,0.0,0.005017768,0.0032979306,0.99998194,0.9999875,-1.654846e-05,-0.0050177407,-1.8189894e-12,-0.9999946,0.0032979725,-0.013371613,-0.036427777,-0.022195816,-0.0014726482,-3.9497972e-06,-0.00024593878,0.0,0.0,0.003028419,0.030014038
-0.028378254249984136,0.0003996937218307625,0.009326186842717792,0.035173047521107094,0.0334410413931738,-0.01572128639200999,0.0,0.0,0.0,0.005017768,0.0032979306,0.99998194,0.9999875,-1.654846e-05,-0.0050177407,-1.8189894e-12,-0.9999946,0.0032979725,-0.016962916,-0.0065002553,0.012519836,-0.0015500996,-3.6431324e-05,-0.0001821099,0.0,0.0,0.003028419,0.029525757
-0.02971056665608668,0.000799387443661525,0.0075941807147844875,0.0302434916185277,0.029310872934255914,-0.013189892820415163,0.0,0.0,0.0,0.005017768,0.0032979306,0.99998194,0.9999875,-1.654846e-05,-0.0050177407,-1.8189894e-12,-0.9999946,0.0032979725,0.03570952,0.0066678524,0.0017461777,-0.0013638015,-2.9099065e-06,-0.00017246847,0.0,0.0,0.003028419,0.02935791
-0.03011026037791744,-0.001732006127933304,0.006128637068071691,0.03130934154340973,0.03357427263378405,-0.01705359879811253,0.0,0.0,0.0,0.005017768,0.0032979306,0.99998194,0.9999875,-1.654846e-05,-0.0050177407,-1.8189894e-12,-0.9999946,0.0032979725,0.022541415,-0.022062566,0.038856506,-0.0012442755,-0.00011320819,2.267641e-05,0.0,0.0,0.003028419,0.029464722
-0.029444104174866172,0.006128637068071691,0.00479632466196915,0.0305099540997482,0.03583920372415837,-0.018652373685435583,0.0,0.0,0.0,0.005017768,0.0032979306,0.99998194,0.9999875,-1.654846e-05,-0.0050177407,-1.8189894e-12,-0.9999946,0.0032979725,0.011767503,0.004273653,0.028082848,-0.0011792167,-9.127388e-05,0.00016297726,0.0,0.0,0.003028419,0.029846191
-0.032375191468291764,0.0026646248122050836,0.009992343045769061,0.032241960227681506,0.03490658503988659,-0.01345635530163567,0.0,0.0,0.0,0.005017768,0.0032979306,0.99998194,0.9999875,-1.654846e-05,-0.0050177407,-1.8189894e-12,-0.9999946,0.0032979725,0.03451242,0.012653358,-0.048531532,-0.0010007585,-2.7550726e-05,-8.049529e-05,0.0,0.0,0.003028419,0.02998352
-0.029577335415476424,0.0039969372183076245,0.0095926493239383,0.028911179212425153,0.03450689131805583,-0.01692036755750228,0.0,0.0,0.0,0.005017768,0.0032979306,0.99998194,0.9999875,-1.654846e-05,-0.0050177407,-1.8189894e-12,-0.9999946,0.0032979725,0.0009935983,0.015047558,-0.030575752,-0.0009907867,4.782482e-05,-0.00023297156,0.0,0.0,0.003028419,0.029891968
-0.028911179212425153,0.0018652373685435584,0.006794793271122962,0.032108728987071254,0.036105666205378875,-0.016520673835671518,0.0,0.0,0.0,0.005017768,0.0032979306,0.99998194,0.9999875,-1.654846e-05,-0.0050177407,-1.8189894e-12,-0.9999946,0.0032979725,-0.026539722,-0.025653869,-0.010224342,-0.0011185313,-8.068365e-05,-0.00028292843,0.0,0.0,0.003028419,0.02998352
-0.027578866806322613,0.000799387443661525,0.008127105677225504,0.032375191468291764,0.03477335379927634,-0.015588055151399738,0.0,0.0,0.0,0.005017768,0.0032979306,0.99998194,0.9999875,-1.654846e-05,-0.0050177407,-1.8189894e-12,-0.9999946,0.0032979725,0.020147208,-0.0065002553,0.046038628,-0.0010122026,-0.000112781505,-5.1320647e-05,0.0,0.0,0.003028419,0.029571533
-0.03264165394951227,0.0003996937218307625,0.01052526800821008,0.02997702913730719,0.035972434964768624,-0.017453292519943295,0.0,0.0,0.0,0.005017768,0.0032979306,0.99998194,0.9999875,-1.654846e-05,-0.0050177407,-1.8189894e-12,-0.9999946,0.0032979725,0.02972402,-0.0029089525,0.008929253,-0.00085852144,-0.00012676236,-6.417784e-06,0.0,0.0,0.003028419,0.029388428
-0.032508422708902016,0.005595712105630674,0.010392036767599824,0.032108728987071254,0.032241960227681506,-0.01532159267017923,0.0,0.0,0.0,0.005017768,0.0032979306,0.99998194,0.9999875,-1.654846e-05,-0.0050177407,-1.8189894e-12,-0.9999946,0.0032979725,0.015358806,-0.05677849,-0.04494095,-0.00077743485,-0.000410021,-0.00023109044,0.0,0.0,0.003028419,0.02949524
-0.026779479362661087,0.003464012255866608,0.0095926493239383,0.027578866806322613,0.03130934154340973,-0.01572128639200999,0.0,0.0,0.0,0.005017768,0.0032979306,0.99998194,0.9999875,-1.654846e-05,-0.0050177407,-1.8189894e-12,-0.9999946,0.0032979725,-0.020554218,0.010259155,-0.020998955,-0.0008763188,-0.00035667513,-0.00033492976,0.0,0.0,0.003028419,0.030197144
-0.032774885190122525,0.005329249624410167,0.0073277182335639785,0.0302434916185277,0.032508422708902016,-0.017186830038722786,0.0,0.0,0.0,0.005017768,0.0032979306,0.99998194,0.9999875,-1.654846e-05,-0.0050177407,-1.8189894e-12,-0.9999946,0.0032979725,0.018950108,-0.01128866,0.06160164,-0.00077718665,-0.00041133506,-2.5246933e-05,0.0,0.0,0.003028419,0.02998352
-0.030909647821578966,0.003464012255866608,0.00866003063966652,0.03170903526524049,0.035705972483548114,-0.016120980113840753,0.0,0.0,0.0,0.005017768,0.0032979306,0.99998194,0.9999875,-1.654846e-05,-0.0050177407,-1.8189894e-12,-0.9999946,0.0032979725,0.03092112,-0.012485759,-0.023392677,-0.0006186951,-0.00047170717,-0.00014208409,0.0,0.0,0.003028419,0.029846191
-0.03370750387439431,0.00479632466196915,0.0075941807147844875,0.03170903526524049,0.03543951000232761,-0.011591117933092112,0.0,0.0,0.0,0.005017768,0.0032979306,0.99998194,0.9999875,-1.654846e-05,-0.0050177407,-1.8189894e-12,-0.9999946,0.0032979725,-0.0061890073,0.023427267,-0.031772614,-0.0006465467,-0.0003522123,-0.00030023674,0.0,0.0,0.003028419,0.02998352
-0.0334410413931738,0.0029310872934255917,0.011724349173702367,0.028378254249984136,0.03503981628049684,-0.016387442595061263,0.0,0.0,0.0,0.005017768,0.0032979306,0.99998194,0.9999875,-1.654846e-05,-0.0050177407,-1.8189894e-12,-0.9999946,0.0032979725,-0.00978031,-0.048398785,-0.04134941,-0.0006922155,-0.00059244514,-0.0005054826,0.0,0.0,0.003028419,0.029800415
-0.027578866806322613,0.0035972434964768626,0.00866003063966652,0.032508422708902016,0.032108728987071254,-0.01438897398590745,0.0,0.0,0.0,0.005017768,0.0032979306,0.99998194,0.9999875,-1.654846e-05,-0.0050177407,-1.8189894e-12,-0.9999946,0.0032979725,0.018950108,0.0018794499,-0.00064754486,-0.0005940039,-0.0005800856,-0.0005061929,0.0,0.0,0.003028419,0.029937744
-0.03130934154340973,0.0030643185340358454,0.008260336917835759,0.032774885190122525,0.036372128686599385,-0.016520673835671518,0.0,0.0,0.0,0.005017768,0.0032979306,0.99998194,0.9999875,-1.654846e-05,-0.0050177407,-1.8189894e-12,-0.9999946,0.0032979725,0.06204574,0.05096058,0.010126114,-0.0002808052,-0.0003223823,-0.00045303136,0.0,0.0,0.003028419,0.029846191
-0.03130934154340973,-0.0013323124061025418,0.007194486992953725,0.02997702913730719,0.03490658503988659,-0.016653905076281773,0.0,0.0,0.0,0.005017768,0.0032979306,0.99998194,0.9999875,-1.654846e-05,-0.0050177407,-1.8189894e-12,-0.9999946,0.0032979725,-0.039707832,0.0006823484,-0.060503006,-0.0004779403,-0.00031735862,-0.00075328123,0.0,0.0,0.003028419,0.029663086
-0.03130934154340973,0.004929555902579405,0.010791730489430587,0.029843797896696934,0.03170903526524049,-0.014255742745297196,0.0,0.0,0.0,0.005017768,0.0032979306,0.99998194,0.9999875,-1.654846e-05,-0.0050177407,-1.8189894e-12,-0.9999946,0.0032979725,-0.01097741,-0.007697357,-0.030575752,-0.0005304377,-0.0003542586,-0.0009023936,0.0,0.0,0.003028419,0.02935791
-0.027312404325102103,0.0010658499248820332,0.008393568158446012,0.029577335415476424,0.032108728987071254,-0.01438897398590745,0.0,0.0,0.0,0.005017768,0.0032979306,0.99998194,0.9999875,-1.654846e-05,-0.0050177407,-1.8189894e-12,-0.9999946,0.0032979725,0.03331532,-0.0053031556,0.020899773,-0.00036120892,-0.0003790031,-0.00079338276,0.0,0.0,0.003028419,0.029327393
-0.027845329287543123,0.005196018383799912,0.0073277182335639785,0.028644716731204646,0.031842266505850744,-0.016254211354451008,0.0,0.0,0.0,0.005017768,0.0032979306,0.99998194,0.9999875,-1.654846e-05,-0.0050177407,-1.8189894e-12,-0.9999946,0.0032979725,-0.057664342,0.05096058,-0.025787354,-0.0006477246,-0.00012230518,-0.0009183526,0.0,0.0,0.003028419,0.02960205
-0.031975497746460996,0.00479632466196915,0.012257274136143382,0.029843797896696934,0.03130934154340973,-0.016387442595061263,0.0,0.0,0.0,0.005017768,0.0032979306,0.99998194,0.9999875,-1.654846e-05,-0.0050177407,-1.8189894e-12,-0.9999946,0.0032979725,-0.00858321,-0.036427777,0.017308235,-0.00068740203,-0.00030383255,-0.0008272197,0.0,0.0,0.003028419,0.029937744
-0.028911179212425153,0.0013323124061025418,0.010924961730040842,0.03077641658096871,0.03477335379927634,-0.014255742745297196,0.0,0.0,0.0,0.005017768,0.0032979306,0.99998194,0.9999875,-1.654846e-05,-0.0050177407,-1.8189894e-12,-0.9999946,0.0032979725,0.016555909,0.03420117,-0.03536415,-0.0006011855,-0.00013130753,-0.0009999044,0.0,0.0,0.003028419,0.030471802
-0.027845329287543123,0.001732006127933304,0.005462480865020421,0.03557274124293786,0.031575804024630234,-0.016520673835671518,0.0,0.0,0.0,0.005017768,0.0032979306,0.99998194,0.9999875,-1.654846e-05,-0.0050177407,-1.8189894e-12,-0.9999946,0.0032979725,0.03451242,0.0018794499,-0.10120392,-0.0004256175,-0.000121253746,-0.0015009244,0.0,0.0,4.779082e-06,0.029876709
-0.030909647821578966,0.005595712105630674,0.009725880564548555,0.032108728987071254,0.031975497746460996,-0.015188361429568975,0.0,0.0,0.0,0.005017768,0.0032979306,0.99998194,0.9999875,-1.654846e-05,-0.0050177407,-1.8189894e-12,-0.9999946,0.0032979725,-0.027736822,0.01744176,0.055615425,-0.00056217355,-3.343868e-05,-0.0012153427,0.0,0.0,4.779082e-06,0.029937744
-0.03370750387439431,0.0014655436467127959,0.009326186842717792,0.03064318534035846,0.03317457891195329,-0.015454823910789483,0.0,0.0,0.0,0.005017768,0.0032979306,0.99998194,0.9999875,-1.654846e-05,-0.0050177407,-1.8189894e-12,-0.9999946,0.0032979725,-0.043299135,-0.0053031556,-0.010224342,-0.00077585835,-5.9787264e-05,-0.0012603876,0.0,0.0,4.779082e-06,0.029815674
-0.03077641658096871,-0.00013323124061025415,0.008526799399056265,0.029310872934255914,0.03437366007744557,-0.015188361429568975,0.0,0.0,0.0,0.005017768,0.0032979306,0.99998194,0.9999875,-1.654846e-05,-0.0050177407,-1.8189894e-12,-0.9999946,0.0032979725,0.022541415,0.046172183,-0.065291405,-0.00065927196,0.00017137258,-0.0015805427,0.0,0.0,4.779082e-06,0.029968262
-0.027578866806322613,0.004529862180748642,0.0095926493239383,0.03064318534035846,0.03424042883683532,-0.015854517632620246,0.0,0.0,0.0,0.005017768,0.0032979306,0.99998194,0.9999875,-1.654846e-05,-0.0050177407,-1.8189894e-12,-0.9999946,0.0032979725,0.060848642,0.0006823484,-0.016210556,-0.0003517324,0.00017392746,-0.0016536927,0.0,0.0,4.779082e-06,0.029815674
-0.030909647821578966,0.0019984686091538122,0.008393568158446012,0.032774885190122525,0.032508422708902016,-0.018252679963604822,0.0,0.0,0.0,0.005017768,0.0032979306,0.99998194,0.9999875,-1.654846e-05,-0.0050177407,-1.8189894e-12,-0.9999946,0.0032979725,-0.015765814,0.015047558,0.010126114,-0.0004288028,0.0002482956,-0.0015947937,0.0,0.0,4.779082e-06,0.029464722
-0.03011026037791744,0.0037304747370871167,0.011058192970651094,0.032108728987071254,0.03290811643073278,-0.015987748873230498,0.0,0.0,0.0,0.005017768,0.0032979306,0.99998194,0.9999875,-1.654846e-05,-0.0050177407,-1.8189894e-12,-0.9999946,0.0032979725,0.060848642,0.016244661,0.020899773,-0.00012241557,0.0003282774,-0.001482321,0.0,0.0,4.779082e-06,0.029327393
-0.029444104174866172,0.001732006127933304,0.007194486992953725,0.03264165394951227,0.0369050536490404,-0.01532159267017923,0.0,0.0,0.0,0.005017768,0.0032979306,0.99998194,0.9999875,-1.654846e-05,-0.0050177407,-1.8189894e-12,-0.9999946,0.0032979725,-0.0025977045,0.0090620555,-0.0018453598,-0.00013479202,0.00037194628,-0.0014841362,0.0,0.0,4.779082e-06,0.029327393
-0.028644716731204646,0.0011990811654922875,0.011058192970651094,0.02997702913730719,0.032508422708902016,-0.013589586542245924,0.0,0.0,0.0,0.005017768,0.0032979306,0.99998194,0.9999875,-1.654846e-05,-0.0050177407,-1.8189894e-12,-0.9999946,0.0032979725,-0.013371613,-0.0017118528,0.014914513,-0.00020097612,0.0003615273,-0.001402143,0.0,0.0,4.779082e-06,0.029785156
-0.029843797896696934,0.002264931090374321,0.007993874436615249,0.031975497746460996,0.036372128686599385,-0.016653905076281773,0.0,0.0,0.0,0.005017768,0.0032979306,0.99998194,0.9999875,-1.654846e-05,-0.0050177407,-1.8189894e-12,-0.9999946,0.0032979725,0.03451242,0.038989577,0.03526497,-2.7409144e-05,0.00055466755,-0.0012188074,0.0,0.0,4.779082e-06,0.029846191
-0.03037672285913795,0.005462480865020421,0.005329249624410167,0.028644716731204646,0.036238897445989134,-0.013989280264076687,0.0,0.0,0.0,0.005017768,0.0032979306,0.99998194,0.9999875,-1.654846e-05,-0.0050177407,-1.8189894e-12,-0.9999946,0.0032979725,0.03451242,-0.004106054,-0.04733467,0.00014529,0.00053136394,-0.0014493868,0.0,0.0,4.779082e-06,0.030471802
-0.0305099540997482,0.0039969372183076245,0.010125574286379316,0.03370750387439431,0.035705972483548114,-0.015588055151399738,0.0,0.0,0.0,0.005017768,0.0032979306,0.99998194,0.9999875,-1.654846e-05,-0.0050177407,-1.8189894e-12,-0.9999946,0.0032979725,0.05007473,-0.032836474,-0.025787354,0.0003949372,0.00036452475,-0.0015710766,0.0,0.0,4.779082e-06,0.029953003
-0.0305099540997482,0.0030643185340358454,0.008526799399056265,0.032375191468291764,0.031575804024630234,-0.01505513018895872,0.0,0.0,0.0,0.005017768,0.0032979306,0.99998194,0.9999875,-1.654846e-05,-0.0050177407,-1.8189894e-12,-0.9999946,0.0032979725,-0.013371613,-0.0017118528,-0.028181076,0.00032610446,0.00035414286,-0.0017041266,0.0,0.0,4.779082e-06,0.02949524
-0.03424042883683532,0.0013323124061025418,0.008393568158446012,0.029577335415476424,0.031176110302799476,-0.013989280264076687,0.0,0.0,0.0,0.005017768,0.0032979306,0.99998194,0.9999875,-1.654846e-05,-0.0050177407,-1.8189894e-12,-0.9999946,0.0032979725,-0.024145521,-0.031639375,0.05202484,0.00020374634,0.00019417529,-0.0014354817,0.0,0.0,4.779082e-06,0.029327393
-0.02717917308449185,0.0013323124061025418,0.0073277182335639785,0.031575804024630234,0.035972434964768624,-0.013589586542245924,0.0,0.0,0.0,0.005017768,0.0032979306,0.99998194,0.9999875,-1.654846e-05,-0.0050177407,-1.8189894e-12,-0.9999946,0.0032979725,0.057257336,0.0030765496,0.022096634,0.00048901426,0.00020858715,-0.0013178212,0.0,0.0,4.779082e-06,0.029327393
-0.026513016881440577,0.004663093421358896,0.009192955602107537,0.028911179212425153,0.03503981628049684,-0.015588055151399738,0.0,0.0,0.0,0.005017768,0.0032979306,0.99998194,0.9999875,-1.654846e-05,-0.0050177407,-1.8189894e-12,-0.9999946,0.0032979725,-0.0061890073,0.03300407,0.013717651,0.00045562416,0.00037256457,-0.0012426438,0.0,0.0,4.779082e-06,0.029785156
-0.026646248122050836,0.0031975497746461,0.0073277182335639785,0.028911179212425153,0.035705972483548114,-0.01732006127933304,0.0,0.0,0.0,0.005017768,0.0032979306,0.99998194,0.9999875,-1.654846e-05,-0.0050177407,-1.8189894e-12,-0.9999946,0.0032979725,0.03092112,0.0006823484,-0.032969475,0.00060795166,0.0003741135,-0.001401278,0.0,0.0,4.779082e-06,0.029815674
-0.032241960227681506,0.002398162330984575,0.010791730489430587,0.033041347671343035,0.0334410413931738,-0.01732006127933304,0.0,0.0,0.0,0.005017768,0.0032979306,0.99998194,0.9999875,-1.654846e-05,-0.0050177407,-1.8189894e-12,-0.9999946,0.0032979725,0.041695025,-0.050792985,-0.00783062,0.000813387,0.000118278025,-0.0014334248,0.0,0.0,4.779082e-06,0.029937744
-0.0255803981971688,0.0011990811654922875,0.007061255752343471,0.03077641658096871,0.03424042883683532,-0.015854517632620246,0.0,0.0,0.0,0.005017768,0.0032979306,0.99998194,0.9999875,-1.654846e-05,-0.0050177407,-1.8189894e-12,-0.9999946,0.0032979725,0.028526913,0.015047558,0.0017461777,0.00095195463,0.00019292443,-0.0014175267,0.0,0.0,4.779082e-06,0.029922485
-0.02851148549059439,-0.000799387443661525,0.010658499248820334,0.03290811643073278,0.032375191468291764,-0.01572128639200999,0.0,0.0,0.0,0.005017768,0.0032979306,0.99998194,0.9999875,-1.654846e-05,-0.0050177407,-1.8189894e-12,-0.9999946,0.0032979725,-0.07681796,-0.0065002553,-0.009027481,0.0005631051,0.00015945853,-0.0014555765,0.0,0.0,4.779082e-06,0.02949524
-0.031575804024630234,0.004396630940138387,0.007061255752343471,0.03144257278401998,0.03503981628049684,-0.018385911204215073,0.0,0.0,0.0,0.005017768,0.0032979306,0.99998194,0.9999875,-1.654846e-05,-0.0050177407,-1.8189894e-12,-0.9999946,0.0032979725,0.018950108,0.025821466,0.016111374,0.00065504014,0.00028776858,-0.0013677418,0.0,0.0,4.779082e-06,0.029342651
-0.027712098046932865,0.006128637068071691,0.01212404289553313,0.031842266505850744,0.03583920372415837,-0.014921898948348467,0.0,0.0,0.0,0.005017768,0.0032979306,0.99998194,0.9999875,-1.654846e-05,-0.0050177407,-1.8189894e-12,-0.9999946,0.0032979725,0.010570403,-0.016077062,-0.05331993,0.000704617,0.00020594444,-0.0016275027,0.0,0.0,4.779082e-06,0.029418945
-0.0287779479718149,0.000799387443661525,0.008526799399056265,0.03384073511500456,0.03144257278401998,-0.017586523760553547,0.0,0.0,0.0,0.005017768,0.0032979306,0.99998194,0.9999875,-1.654846e-05,-0.0050177407,-1.8189894e-12,-0.9999946,0.0032979725,0.012964606,-0.02804807,0.044841766,0.00076591695,6.467437e-05,-0.0013951564,0.0,0.0,4.779082e-06,0.030349731
-0.031575804024630234,0.005595712105630674,0.010258805526989571,0.0305099540997482,0.0302434916185277,-0.01438897398590745,0.0,0.0,0.0,0.005017768,0.0032979306,0.99998194,0.9999875,-1.654846e-05,-0.0050177407,-1.8189894e-12,-0.9999946,0.0032979725,-0.003794808,-0.031639375,0.002943039,0.00074311334,-9.384587e-05,-0.0013734654,0.0,0.0,4.779082e-06,0.029876709
-0.02997702913730719,0.0011990811654922875,0.007993874436615249,0.02904441045303541,0.03490658503988659,-0.0191852986478766,0.0,0.0,0.0,0.005017768,0.0032979306,0.99998194,0.9999875,-1.654846e-05,-0.0050177407,-1.8189894e-12,-0.9999946,0.0032979725,0.014161706,0.03420117,0.0675869,0.0008102063,7.7629215e-05,-0.0010286636,0.0,0.0,4.779082e-06,0.029922485
-0.02851148549059439,0.000799387443661525,0.007061255752343471,0.02971056665608668,0.037304747370871166,-0.015588055151399738,0.0,0.0,0.0,0.005017768,0.0032979306,0.99998194,0.9999875,-1.654846e-05,-0.0050177407,-1.8189894e-12,-0.9999946,0.0032979725,0.057257336,0.016244661,-0.034166336,0.001092442,0.00015846438,-0.0011943519,0.0,0.0,4.779082e-06,0.029937744
-0.027845329287543123,0.0031975497746461,0.0075941807147844875,0.02971056665608668,0.03583920372415837,-0.01572128639200999,0.0,0.0,0.0,0.005017768,0.0032979306,0.99998194,0.9999875,-1.654846e-05,-0.0050177407,-1.8189894e-12,-0.9999946,0.0032979725,-0.048087537,-0.0148799615,-0.024589539,0.00084654207,8.327225e-05,-0.0013113279,0.0,0.0,4.779082e-06,0.029449463
-0.0305099540997482,0.0003996937218307625,0.009992343045769061,0.029843797896696934,0.035705972483548114,-0.01532159267017923,0.0,0.0,0.0,0.005017768,0.0032979306,0.99998194,0.9999875,-1.654846e-05,-0.0050177407,-1.8189894e-12,-0.9999946,0.0032979725,0.0033877976,-0.016077062,0.09512043,0.0008592484,2.4705805e-06,-0.0008291692,0.0,0.0,4.779082e-06,0.029312134
-0.02851148549059439,0.0037304747370871167,0.009992343045769061,0.031042879062189218,0.031842266505850744,-0.012923430339194655,0.0,0.0,0.0,0.005017768,0.0032979306,0.99998194,0.9999875,-1.654846e-05,-0.0050177407,-1.8189894e-12,-0.9999946,0.0032979725,0.020147208,-0.012485759,0.016111374,0.0009556882,-5.9970567e-05,-0.00074446644,0.0,0.0,4.779082e-06,0.029312134
-0.028245023009373885,0.0030643185340358454,0.006928024511733216,0.035173047521107094,0.03410719759622506,-0.016120980113840753,0.0,0.0,0.0,0.005017768,0.0032979306,0.99998194,0.9999875,-1.654846e-05,-0.0050177407,-1.8189894e-12,-0.9999946,0.0032979725,0.0069791004,-0.0148799615,-0.043743134,0.0009858053,-0.00013407052,-0.0009594598,0.0,0.0,4.779082e-06,0.029769897
-0.03130934154340973,0.004396630940138387,0.008793261880276773,0.03037672285913795,0.03317457891195329,-0.016120980113840753,0.0,0.0,0.0,0.005017768,0.0032979306,0.99998194,0.9999875,-1.654846e-05,-0.0050177407,-1.8189894e-12,-0.9999946,0.0032979725,0.039300825,-0.049595885,0.059206963,0.0011773803,-0.0003813796,-0.0006586277,0.0,0.0,4.779082e-06,0.029846191
-0.031975497746460996,0.005595712105630674,0.006794793271122962,0.03130934154340973,0.03703828488965066,-0.01572128639200999,0.0,0.0,0.0,0.005017768,0.0032979306,0.99998194,0.9999875,-1.654846e-05,-0.0050177407,-1.8189894e-12,-0.9999946,0.0032979725,0.004584901,0.044975083,-0.04015255,0.001194418,-0.00015459729,-0.0008560973,0.0,0.0,4.779082e-06,0.030014038
-0.029577335415476424,0.0030643185340358454,0.007993874436615249,0.0287779479718149,0.03357427263378405,-0.01372281778285618,0.0,0.0,0.0,0.005017768,0.0032979306,0.99998194,0.9999875,-1.654846e-05,-0.0050177407,-1.8189894e-12,-0.9999946,0.0032979725,-0.0014006048,0.021033064,0.0627985,0.0011814428,-4.8658992e-05,-0.00053782435,0.0,0.0,4.779082e-06,0.029876709
-0.029843797896696934,-0.0009326186842717792,0.006661562030512709,0.0334410413931738,0.03317457891195329,-0.017986217482384312,0.0,0.0,0.0,0.005017768,0.0032979306,0.99998194,0.9999875,-1.654846e-05,-0.0050177407,-1.8189894e-12,-0.9999946,0.0032979725,-0.056467243,0.004273653,0.01850605,0.0008931993,-2.7047434e-05,-0.00044260497,0.0,0.0,4.779082e-06,0.029785156
-0.02904441045303541,0.0,0.008127105677225504,0.029177641693645662,0.033307810152563545,-0.018119448722994567,0.0,0.0,0.0,0.005017768,0.0032979306,0.99998194,0.9999875,-1.654846e-05,-0.0050177407,-1.8189894e-12,-0.9999946,0.0032979725,0.015358806,-0.013682861,-0.01381588,0.0009655273,-9.53265e-05,-0.00050947134,0.0,0.0,4.779082e-06,0.029876709
-0.03037672285913795,0.0013323124061025418,0.006794793271122962,0.031975497746460996,0.031575804024630234,-0.01692036755750228,0.0,0.0,0.0,0.005017768,0.0032979306,0.99998194,0.9999875,-1.654846e-05,-0.0050177407,-1.8189894e-12,-0.9999946,0.0032979725,0.07401675,-0.0053031556,0.0065345764,0.0013307835,-0.00012136564,-0.0004742511,0.0,0.0,4.779082e-06,0.02947998
-0.02691271060327134,0.004529862180748642,0.009326186842717792,0.029177641693645662,0.03357427263378405,-0.01372281778285618,0.0,0.0,0.0,0.005017768,0.0032979306,0.99998194,0.9999875,-1.654846e-05,-0.0050177407,-1.8189894e-12,-0.9999946,0.0032979725,0.03690662,-0.013682861,-0.05331993,0.0015086626,-0.00018917312,-0.0007384795,0.0,0.0,4.779082e-06,0.029708862
-0.02904441045303541,0.004130168458917879,0.009459418083328047,0.03064318534035846,0.03370750387439431,-0.014255742745297196,0.0,0.0,0.0,0.005017768,0.0032979306,0.99998194,0.9999875,-1.654846e-05,-0.0050177407,-1.8189894e-12,-0.9999946,0.0032979725,0.03690662,-0.012485759,0.004140854,0.0016856523,-0.00025065604,-0.0007140828,0.0,0.0,4.779082e-06,0.029800415
-0.02744563556571236,0.0013323124061025418,0.007061255752343471,0.027312404325102103,0.0302434916185277,-0.016254211354451008,0.0,0.0,0.0,0.005017768,0.0032979306,0.99998194,0.9999875,-1.654846e-05,-0.0050177407,-1.8189894e-12,-0.9999946,0.0032979725,0.008176204,-0.008894458,0.054418564,0.001718105,-0.00029387505,-0.00043841958,0.0,0.0,4.779082e-06,0.02986145
-0.029843797896696934,0.0031975497746461,0.006928024511733216,0.03530627876171736,0.035173047521107094,-0.018652373685435583,0.0,0.0,0.0,0.005017768,0.0032979306,0.99998194,0.9999875,-1.654846e-05,-0.0050177407,-1.8189894e-12,-0.9999946,0.0032979725,-0.016962916,-0.0065002553,0.03646183,0.0016246999,-0.00032490696,-0.00025391835,0.0,0.0,4.779082e-06,0.029846191
-0.031842266505850744,0.002264931090374321,0.006661562030512709,0.03144257278401998,0.03424042883683532,-0.016387442595061263,0.0,0.0,0.0,0.005017768,0.0032979306,0.99998194,0.9999875,-1.654846e-05,-0.0050177407,-1.8189894e-12,-0.9999946,0.0032979725,-0.04210203,0.025821466,0.014914513,0.0014060664,-0.00019417508,-0.00017807618,0.0,0.0,4.779082e-06,0.029449463
-0.029843797896696934,0.0039969372183076245,0.009059724361497283,0.03064318534035846,0.03357427263378405,-0.016387442595061263,0.0,0.0,0.0,0.005017768,0.0032979306,0.99998194,0.9999875,-1.654846e-05,-0.0050177407,-1.8189894e-12,-0.9999946,0.0032979725,-0.013371613,0.025821466,-0.08085346,0.001332178,-6.409688e-05,-0.0005814531,0.0,0.0,4.779082e-06,0.029342651
-0.029843797896696934,0.0058621745868511835,0.008793261880276773,0.027845329287543123,0.032774885190122525,-0.01572128639200999,0.0,0.0,0.0,0.005017768,0.0032979306,0.99998194,0.9999875,-1.654846e-05,-0.0050177407,-1.8189894e-12,-0.9999946,0.0032979725,-0.024145521,-0.02804807,-0.043743134,0.0012047895,-0.00020401675,-0.0007972615,0.0,0.0,4.779082e-06,0.029388428
-0.029577335415476424,0.0029310872934255917,0.008260336917835759,0.03011026037791744,0.03397396635561481,-0.013589586542245924,0.0,0.0,0.0,0.005017768,0.0032979306,0.99998194,0.9999875,-1.654846e-05,-0.0050177407,-1.8189894e-12,-0.9999946,0.0032979725,-0.007386107,-0.016077062,-0.023392677,0.001161835,-0.00028338196,-0.0009102386,0.0,0.0,4.779082e-06,0.029724121
-0.027045941843881597,0.0030643185340358454,0.008260336917835759,0.029444104174866172,0.032375191468291764,-0.01692036755750228,0.0,0.0,0.0,0.005017768,0.0032979306,0.99998194,0.9999875,-1.654846e-05,-0.0050177407,-1.8189894e-12,-0.9999946,0.0032979725,0.056060236,-0.0065002553,-0.015012741,0.0014363271,-0.0003144663,-0.0009807511,0.0,0.0,4.779082e-06,0.029876709
-0.03130934154340973,0.0026646248122050836,0.007993874436615249,0.0305099540997482,0.036372128686599385,-0.016120980113840753,0.0,0.0,0.0,0.005017768,0.0032979306,0.99998194,0.9999875,-1.654846e-05,-0.0050177407,-1.8189894e-12,-0.9999946,0.0032979725,0.03690662,0.007864956,0.0077314377,0.0016136785,-0.0002735692,-0.0009371902,0.0,0.0,4.779082e-06,0.029937744
-0.029310872934255914,0.0033307810152563544,0.007860643196004996,0.032375191468291764,0.031575804024630234,-0.016254211354451008,0.0,0.0,0.0,0.005017768,0.0032979306,0.99998194,0.9999875,-1.654846e-05,-0.0050177407,-1.8189894e-12,-0.9999946,0.0032979725,-0.020554218,0.0006823484,0.0077314377,0.001502839,-0.0002687896,-0.0008938471,0.0,0.0,4.779082e-06,0.03036499
-0.029444104174866172,0.005595712105630674,0.00985911180515881,0.03037672285913795,0.03384073511500456,-0.017586523760553547,0.0,0.0,0.0,0.005017768,0.0032979306,0.99998194,0.9999875,-1.654846e-05,-0.0050177407,-1.8189894e-12,-0.9999946,0.0032979725,-0.06484695,0.031806972,-0.003042221,0.0011710902,-0.00010841078,-0.00090458896,0.0,0.0,4.779082e-06,0.029769897
-0.0287779479718149,0.0009326186842717792,0.009059724361497283,0.03130934154340973,0.036771822408430146,-0.01692036755750228,0.0,0.0,0.0,0.005017768,0.0032979306,0.99998194,0.9999875,-1.654846e-05,-0.0050177407,-1.8189894e-12,-0.9999946,0.0032979725,0.002190698,0.03539827,0.03047657,0.0011761882,6.912262e-05,-0.0007476831,0.0,0.0,4.779082e-06,0.029342651
-0.032774885190122525,0.003464012255866608,0.008526799399056265,0.031575804024630234,0.03450689131805583,-0.016520673835671518,0.0,0.0,0.0,0.005017768,0.0032979306,0.99998194,0.9999875,-1.654846e-05,-0.0050177407,-1.8189894e-12,-0.9999946,0.0032979725,-0.018160015,-0.08550891,0.06399536,0.0010795072,-0.00035876755,-0.00042396793,0.0,0.0,4.779082e-06,0.029449463
-0.02584686067838931,0.0035972434964768626,0.008793261880276773,0.030909647821578966,0.03503981628049684,-0.014122511504686942,0.0,0.0,0.0,0.005017768,0.0032979306,0.99998194,0.9999875,-1.654846e-05,-0.0050177407,-1.8189894e-12,-0.9999946,0.0032979725,-0.01097741,-0.01128866,-0.022195816,0.0010192227,-0.000413417,-0.00053282717,0.0,0.0,4.779082e-06,0.029693604
-0.031575804024630234,0.0030643185340358454,0.008526799399056265,0.0302434916185277,0.03410719759622506,-0.016254211354451008,0.0,0.0,0.0,0.005017768,0.0032979306,0.99998194,0.9999875,-1.654846e-05,-0.0050177407,-1.8189894e-12,-0.9999946,0.0032979725,0.004584901,0.038989577,-0.03536415,0.0010370511,-0.00021640204,-0.0007069838,0.0,0.0,4.779082e-06,0.029846191
-0.03144257278401998,0.0033307810152563544,0.010924961730040842,0.028378254249984136,0.03290811643073278,-0.014788667707738212,0.0,0.0,0.0,0.005017768,0.0032979306,0.99998194,0.9999875,-1.654846e-05,-0.0050177407,-1.8189894e-12,-0.9999946,0.0032979725,0.03451242,-0.02445677,0.004140854,0.0012044279,-0.00033760388,-0.0006827446,0.0,0.0,4.779082e-06,0.029800415
-0.027312404325102103,0.0002664624812205083,0.0075941807147844875,0.02997702913730719,0.037837672333312186,-0.01505513018895872,0.0,0.0,0.0,0.005017768,0.0032979306,0.99998194,0.9999875,-1.654846e-05,-0.0050177407,-1.8189894e-12,-0.9999946,0.0032979725,-0.020554218,0.0030765496,0.005337715,0.0010956347,-0.00032053312,-0.00065264234,0.0,0.0,4.779082e-06,0.029876709
-0.03077641658096871,0.0009326186842717792,0.007860643196004996,0.028245023009373885,0.035705972483548114,-0.016387442595061263,0.0,0.0,0.0,0.005017768,0.0032979306,0.99998194,0.9999875,-1.654846e-05,-0.0050177407,-1.8189894e-12,-0.9999946,0.0032979725,-0.0049919076,0.0030765496,0.029279709,0.0010651969,-0.0003035477,-0.0005029806,0.0,0.0,4.779082e-06,0.029907227
-0.03317457891195329,0.0009326186842717792,0.009326186842717792,0.030909647821578966,0.032108728987071254,-0.01945176112909711,0.0,0.0,0.0,0.005017768,0.0032979306,0.99998194,0.9999875,-1.654846e-05,-0.0050177407,-1.8189894e-12,-0.9999946,0.0032979725,0.03331532,-0.007697357,0.002943039,0.0012264475,-0.00034051677,-0.0004857505,0.0,0.0,4.779082e-06,0.029830933
-0.026779479362661087,0.0019984686091538122,0.006794793271122962,0.026379785640830326,0.03583920372415837,-0.011724349173702367,0.0,0.0,0.0,0.005017768,0.0032979306,0.99998194,0.9999875,-1.654846e-05,-0.0050177407,-1.8189894e-12,-0.9999946,0.0032979725,0.10274716,-0.049595885,0.032871246,0.0017340512,-0.00058679364,-0.00031896553,0.0030995351,0.0,4.779082e-06,0.030166626
-0.02971056665608668,0.0021316998497640663,0.008127105677225504,0.02997702913730719,0.03557274124293786,-0.02131699849764067,0.0,0.0,0.0,0.005017768,0.0032979306,0.99998194,0.9999875,-1.654846e-05,-0.0050177407,-1.8189894e-12,-0.9999946,0.0032979725,-0.012174513,-0.029245172,0.03646183,0.0016645084,-0.00073008554,-0.00013506155,0.0030995351,0.0,4.779082e-06,0.029693604
-0.027845329287543123,-0.0006661562030512709,0.006794793271122962,0.028644716731204646,0.03797090357392244,-0.016520673835671518,0.0,0.0,0.0,0.005017768,0.0032979306,0.99998194,0.9999875,-1.654846e-05,-0.0050177407,-1.8189894e-12,-0.9999946,0.0032979725,0.018950108,-0.034033574,0.017308235,0.0017509364,-0.000896603,-4.7845067e-05,0.0030995351,0.0,4.779082e-06,0.029953003
-0.032375191468291764,0.0006661562030512709,0.010392036767599824,0.02997702913730719,0.03477335379927634,-0.016254211354451008,0.0,0.0,0.0,0.005017768,0.0032979306,0.99998194,0.9999875,-1.654846e-05,-0.0050177407,-1.8189894e-12,-0.9999946,0.0032979725,0.04528633,-0.010091558,0.029279709,0.0019686134,-0.0009425777,9.87927e-05,0.0030995351,0.0,4.779082e-06,0.029449463
-0.0287779479718149,-0.0011990811654922875,0.008793261880276773,0.029577335415476424,0.03490658503988659,-0.013189892820415163,0.0,0.0,0.0,0.005017768,0.0032979306,0.99998194,0.9999875,-1.654846e-05,-0.0050177407,-1.8189894e-12,-0.9999946,0.0032979725,0.044089224,0.021033064,0.01850605,0.0021792164,-0.00083269953,0.00019082899,0.0030995351,0.0,4.779082e-06,0.029953003
-0.02598009191899956,-0.0005329249624410166,0.006794793271122962,0.02717917308449185,0.03863705977697371,-0.01532159267017923,0.0,0.0,0.0,0.005017768,0.0032979306,0.99998194,0.9999875,-1.654846e-05,-0.0050177407,-1.8189894e-12,-0.9999946,0.0032979725,-0.00978031,-0.01128866,-0.009027481,0.0021194187,-0.0008849793,0.00014473744,0.0030995351,0.0,4.779082e-06,0.029876709
-0.026513016881440577,0.00013323124061025415,0.0074609494741742334,0.03077641658096871,0.0369050536490404,-0.017186830038722786,0.0,0.0,0.0,0.005017768,0.0032979306,0.99998194,0.9999875,-1.654846e-05,-0.0050177407,-1.8189894e-12,-0.9999946,0.0032979725,0.017753009,0.030609868,-0.028181076,0.0021975867,-0.0007275051,3.1083764e-06,0.0030995351,0.0,4.779082e-06,0.029907227
-0.028245023009373885,-0.0033307810152563544,0.0009326186842717792,0.029577335415476424,0.03850382853636345,-0.022915773384963714,0.0,0.0,0.0,0.005017768,0.0032979306,0.99998194,0.9999875,-1.654846e-05,-0.0050177407,-1.8189894e-12,-0.9999946,0.0032979725,0.03211822,-0.032836474,0.010126114,0.00234719,-0.00088804995,5.3723405e-05,0.0030995351,0.0,4.779082e-06,0.029800415
-0.028111791768763626,-0.005329249624410167,-0.028245023009373885,0.024914241994117528,0.04316692195772235,-0.06261868308681946,0.0,0.0,0.0,0.005017768,0.0032979306,0.99998194,0.9999875,-1.654846e-05,-0.0050177407,-1.8189894e-12,-0.9999946,0.0032979725,-0.05167884,-0.26986244,0.0771637,0.0020770598,-0.0022329218,0.00043927325,0.0030995351,-0.008004953,4.779082e-06,0.029663086
-0.029843797896696934,-0.02131699849764067,-0.08073813180981403,0.020251148572758632,0.054491577409593955,-0.10511944884149053,0.0,0.0,-0.09671189,0.00500838,0.0033122143,0.99998194,0.9999835,0.002830042,-0.00501772,0.0028466105,-0.9999905,0.0032979592,-0.008499958,0.14420778,0.038856506,0.002024175,-0.0015007183,0.0006313594,0.0030995351,-0.0037603122,4.779082e-06,0.029434204
-0.027712098046932865,-0.021583460978861175,0.029310872934255914,0.032508422708902016,0.05515773361264523,0.0013323124061025418,0.0,0.0,0.0,0.00500838,0.0033122143,0.99998194,0.9999835,0.002830042,-0.00501772,0.0028466105,-0.9999905,0.0032979592,0.106421724,-0.06528486,-0.0700798,0.0025461626,-0.001819639,0.00027780363,0.0062287264,-0.0037603122,4.779082e-06,0.029403687
-0.026646248122050836,0.003464012255866608,0.0035972434964768626,0.02851148549059439,0.036238897445989134,-0.022516079663132953,0.0,0.0,0.0,0.00500838,0.0033122143,0.99998194,0.9999835,0.002830042,-0.00501772,0.0028466105,-0.9999905,0.0032979592,0.016639162,-0.024583433,-0.0066337585,0.0026166276,-0.0019334579,0.00024324583,0.0062287264,-0.0037603122,4.779082e-06,0.02949524
-0.03450689131805583,-0.006661562030512709,0.007993874436615249,0.03757120985209167,0.04396630940138387,-0.020517611053979142,0.0,0.0,0.0,0.00500838,0.0033122143,0.99998194,0.9999835,0.002830042,-0.00501772,0.0028466105,-0.9999905,0.0032979592,0.050157983,0.028089006,0.0077314377,0.0028543342,-0.0017833456,0.00028068677,0.0062287264,-0.0037603122,4.779082e-06,0.029418945
-0.05129402763494785,-0.020517611053979142,0.026379785640830326,0.0604869832370554,0.05502450237203497,-0.001732006127933304,0.0,0.0,0.0,0.00500838,0.0033122143,0.99998194,0.9999835,0.002830042,-0.00501772,0.0028466105,-0.9999905,0.0032979592,-0.067157894,0.086746946,0.0675869,0.002504273,-0.0013406941,0.00061721785,0.0062287264,-0.0037603122,4.779082e-06,0.029327393
-0.035705972483548114,-0.017986217482384312,0.04276722823589159,0.0369050536490404,0.05808882090607082,0.01532159267017923,0.0,0.0,0.0,0.00500838,0.0033122143,0.99998194,0.9999835,0.002830042,-0.00501772,0.0028466105,-0.9999905,0.0032979592,0.15550286,-0.25083548,0.002943039,0.0032692659,-0.0025881683,0.00062884693,0.01088413,-0.011269761,4.779082e-06,0.029937744
-0.017453292519943295,-0.046098009251147945,0.012257274136143382,0.019984686091538122,0.08113782553164478,-0.015454823910789483,0.0,-0.051715706,0.0,0.006545556,0.0033122143,0.99997425,0.9999746,0.0028300388,-0.006554891,0.0028516802,-0.9999905,0.0032935834,0.059271634,-0.10119788,0.15983105,0.0035492778,-0.003081217,0.0014248579,0.01088413,-0.0142777795,0.0047556167,0.029724121
0.05156049011616837,-0.07860643196004995,0.008127105677225504,-0.07287748861380902,0.11404594196237756,-0.004529862180748642,0.09176435,-0.084423974,0.0,0.009072954,0.0060593616,0.9999486,0.9999547,0.0028120216,-0.009090034,0.002859994,-0.99997777,0.0060335454,0.08713758,-0.07528062,0.16125679,0.0039672195,-0.0034422139,0.0022240174,0.01088413,-0.0142777795,0.009583281,0.029937744
0.09952373673585986,-0.1392266464377156,0.04716385917602997,-0.07660796335089615,0.17679785628980726,0.03077641658096871,0.11761121,-0.14611004,0.0,0.013440246,0.009574812,0.9998877,0.99990547,0.002780038,-0.013467111,0.0028863277,-0.99995035,0.009536548,-0.006657049,0.083884336,0.29108334,0.003914098,-0.0030055812,0.003668314,0.01088413,-0.0142777795,0.018284336,0.029891968
-0.14682082715250008,-0.02464777951289702,-0.10884992357857766,0.13389739681330545,0.0610199081994964,-0.16240888230389983,-0.11081376,0.0,-0.1394125,0.013400162,0.0063037933,0.9999196,0.9998849,0.007010853,-0.01345774,0.007072478,-0.9999557,0.006208964,0.20438814,-0.2510278,0.047789574,0.0049164677,-0.0042456924,0.0038889204,0.017021762,-0.021815967,0.018284336,0.030029297
-0.09539356827694198,-0.07221133241075775,-0.01945176112909711,0.08739969384032674,0.112180704593834,-0.04210107203284032,-0.06185127,-0.080293804,0.0,0.015796434,0.004457917,0.9998991,0.9998498,0.0070356764,-0.015840942,0.007087346,-0.9999655,0.0043460648,-0.0012148768,0.017929219,0.32450104,0.004885811,-0.0041348175,0.005491981,0.017021762,-0.021815967,0.027969455,0.029846191
-0.11857580414312621,-0.17773047497407904,0.08433537530629089,0.15028483940836668,0.22755895896231412,0.04916232778518379,-0.10488496,-0.19074251,0.06296575,0.021514662,0.0012884378,0.99982285,0.9997547,0.0052005546,-0.021528007,0.005227141,-0.9999857,0.0011656745,0.12764251,0.010122292,0.7274027,0.0054995944,-0.004063532,0.009101534,0.02084309,-0.021815967,0.049746253,0.029937744
-0.2388836144141857,-0.2821837676125183,0.23208882114306276,0.27139203712308774,0.32495099584840986,0.1787963248989611,-0.22559246,-0.29166517,0.20165947,0.03021706,-0.0055659213,0.9996444,0.9995441,-0.00066574605,-0.030185437,-0.000775217,-0.999984,-0.0056056473,0.17257625,0.21695122,0.68708706,0.0063349777,-0.0029584584,0.012491463,0.025988568,-0.015347419,0.07023221,0.029815674
-0.2226294030597347,-0.17493261892126372,0.23968300185784724,0.24501225148225741,0.19518376749402233,0.1669387444846485,-0.20427546,-0.17315598,0.19952777,0.03536062,-0.011853376,0.9994539,0.99935377,-0.0064457417,-0.0353647,-0.0067712255,-0.99990857,-0.011710419,0.17724279,-0.34020892,0.5798397,0.007189517,-0.0046447106,0.015328204,0.031289406,-0.025522124,0.08757361,0.029907227
-0.26046707539304687,0.010258805526989571,0.06941347635794241,0.27498928061956457,0.016254211354451008,0.013189892820415163,-0.23818281,0.0,0.0,0.03536062,-0.018947447,0.99936974,0.99935365,-0.0061947242,-0.035410445,-0.006771055,-0.99980026,-0.018807244,0.11499354,0.24224117,0.5578413,0.007728537,-0.0034102811,0.018040769,0.03471626,-0.018303236,0.10419752,0.029800415
-0.39449770344696256,0.10671822372881358,0.049029096544573526,0.424075038862439,-0.06808116395183987,-0.0334410413931738,-0.379741,0.099301904,0.0,0.03238962,-0.03030887,0.9992595,0.9994546,-0.0057921326,-0.032509778,-0.0067147072,-0.99952155,-0.030191729,0.22034824,-0.21485776,0.8640804,0.008791636,-0.0044675185,0.022270966,0.04131299,-0.024735592,0.13006614,0.029937744
-0.4872266469116995,-0.09512710579572148,0.044632465604435144,0.45671669281195126,0.14855283328043337,-0.023315467106794475,-0.4424263,-0.10993776,0.0,0.03568182,-0.0435578,0.9987509,0.9993418,-0.005361063,-0.035879217,-0.006813582,-0.9990338,-0.04341821,0.07024667,-0.10096106,0.04139328,0.009098911,-0.004949986,0.022366578,0.04131299,-0.02776122,0.13006614,0.029968262
-0.033041347671343035,-0.19531699873463262,0.08793261880276775,0.016120980113840753,0.23555283339892938,0.05169372135677862,0.0,-0.2035327,0.06603007,0.04167224,-0.043628227,0.99853384,0.9990925,-0.0073333834,-0.041958347,-0.009049578,-0.99901783,-0.043376647,-0.09300804,0.13070393,-0.4774208,0.008588376,-0.0042717163,0.01986764,0.04131299,-0.023854222,0.11579509,0.029891968
-0.02398162330984575,-0.33614242005967127,-0.010658499248820334,0.0401026034236865,0.37904287953617305,-0.05022817771006582,0.0,-0.34569043,0.0,0.05182191,-0.043628227,0.99811023,0.9986144,-0.007333004,-0.052111,-0.009490482,-0.9990177,-0.04328466,-0.027389497,-0.44988996,-0.07263565,0.008408488,-0.0064998074,0.019405123,0.04131299,-0.037082646,0.11579509,0.029403687
-0.03930321598002497,-0.3394732010749276,-0.06408422673353224,0.03930321598002497,0.3641209805878246,-0.10325421147294697,0.0,-0.3398949,-0.087452315,0.061883196,-0.043495316,0.99759364,0.99806094,-0.0047715567,-0.062062133,-0.0073597073,-0.99903977,-0.043189958,-0.029221952,0.15466444,-0.945529,0.0082203355,-0.005693986,0.014580453,0.04131299,-0.03254674,0.08806519,0.029327393
-0.20544257302101193,-0.13589586542245924,-0.1267029098203517,0.21730015343532455,0.14269065869358222,-0.1825267996360482,-0.181826,-0.12739106,-0.15839796,0.0658675,-0.048598185,0.997124,0.9978283,0.00026555525,-0.065867804,-0.0028171304,-0.9988162,-0.048563074,-0.21538842,0.12808925,-0.91742325,0.007102291,-0.0050250697,0.009920435,0.03490747,-0.028737444,0.060781594,0.02973938
-0.21436906614189893,0.280451761484585,-0.15095099561141798,0.16120980113840752,-0.273124043251021,-0.17000306301868431,-0.15824407,0.28869012,-0.16426013,0.057518505,-0.052982423,0.99746186,0.99834377,0.0054656044,-0.057270464,0.0024952588,-0.9985754,-0.05330096,0.60324496,0.13943419,-0.50382805,0.010083005,-0.0043027736,0.0073516928,0.052902833,-0.024577992,0.045751933,0.029830933
0.11737672297763392,0.5156049011616837,-0.014788667707738212,-0.1259035223766902,-0.4731041354070125,-0.0002664624812205083,0.15118548,0.5062567,0.0,0.042385377,-0.04846316,0.99857455,0.99909806,0.0052055283,-0.04214389,0.003303886,-0.9988062,-0.04873827,0.02995494,-0.14844128,-0.008519173,0.010182364,-0.005023466,0.0072723385,0.052902833,-0.02902652,0.045751933,0.029968262
0.08859877500581902,0.42967075096806967,-0.0035972434964768626,-0.08553445647178318,-0.38250689179203967,0.007993874436615249,0.11661197,0.41799104,0.0,0.029953197,-0.044994805,0.99927056,0.99954545,0.0050587584,-0.02972097,0.0039106486,-0.998969,-0.045227688,0.080345154,-0.028363049,0.17086029,0.010533178,-0.005140164,0.008090278,0.052902833,-0.02902652,0.050841033,0.029785156
0.018652373685435583,0.4833629409340021,0.08406891282507037,-0.0030643185340358454,-0.44925574333777707,0.06634915782390657,0.0,0.47821155,0.07142594,0.015719686,-0.045058105,0.99969435,0.99987435,0.0029461535,-0.015577062,0.0024394756,-0.99897623,-0.045172308,-0.25312257,-0.2995436,-0.26744556,0.0092148995,-0.006612181,0.006712599,0.045413747,-0.037889052,0.042928178,0.029586792
0.05209341507860938,0.5310597250724731,-0.048229709100912004,-0.07767381327577817,-0.479632466196915,-0.04369984692016337,0.09442897,0.51724833,0.0,0.00048376527,-0.042276632,1.0000592,0.9999957,0.0029024763,-0.0003465543,0.0031279146,-0.99909776,-0.042355478,0.023243416,0.3461675,0.0860548,0.009285042,-0.004848283,0.00710931,0.045413747,-0.027689323,0.042928178,0.029464722
0.3505313940455787,0.36465390555026567,-0.10538591132271104,-0.38543797908546534,-0.3161577339681331,-0.06435068921475276,0.39753005,0.35230803,-0.0886514,-0.009749845,-0.030604031,1.0005577,0.9999352,0.0055007297,0.0099619925,0.006165819,-0.9995108,-0.03066076,-0.26070023,-0.12604907,-0.0021619797,0.007935115,-0.005454287,0.0070629534,0.037760135,-0.03138986,0.042928178,0.02935791
0.24447932651981638,0.15254977049874102,-0.07727411955394742,-0.22689280275926285,-0.08766615632154724,-0.050094946469455566,0.26523143,0.13201018,-0.06746763,-0.013624465,-0.022715218,1.0007612,0.9998753,0.0075898296,0.013852084,0.008295738,-0.99970716,-0.0227356,0.12560654,0.10207314,0.6233139,0.008523473,-0.00491665,0.010144208,0.04150326,-0.028348036,0.06150319,0.029800415
-0.018252679963604822,-0.031842266505850744,0.10525268008210079,0.05955436455278361,0.06501684541780403,0.0834027566220191,0.0,0.0,0.09054462,-0.013685945,-0.022678344,1.0007612,0.9998922,0.004883592,0.013852033,0.0055899536,-0.99972594,-0.022735516,-0.09770613,0.124491066,-0.1967001,0.007992324,-0.004269611,0.009109986,0.04150326,-0.024626754,0.05562344,0.029891968
-0.2383506894517447,0.053692189965932426,0.1360290966630695,0.27125880588247747,-0.017186830038722786,0.0834027566220191,-0.2252594,0.0,0.105932824,-0.013759297,-0.029517122,1.0006052,0.99990237,0.0015542306,0.013885543,0.0023563425,-0.9995588,-0.029610584,0.08250946,-0.34518015,-0.17975521,0.00836491,-0.0059741633,0.00816566,0.04150326,-0.035166085,0.050135,0.030532837
-0.36252220570050153,0.1613430323790178,0.04849617158213252,0.33894027611248656,-0.13296477812903365,-0.018119448722994567,-0.3211859,0.15905611,0.0,-0.01850939,-0.0391091,1.0002569,0.9998251,0.0014211052,0.018646987,0.002496796,-0.99922913,-0.039179545,0.20244357,0.031971574,-0.87337875,0.009335304,-0.0057844347,0.0037579383,0.047545433,-0.035166085,0.024067972,0.029846191
0.0095926493239383,0.07913935692249098,-0.008793261880276773,-0.026379785640830326,-0.009192955602107537,-0.022516079663132953,0.0,0.056068365,0.0,-0.020175545,-0.0391091,1.000226,0.99979264,0.0014211033,0.020312393,0.0025620584,-0.99922913,-0.039175387,-0.3262652,0.011620849,0.053450584,0.0076573016,-0.005697408,0.0040064016,0.037852466,-0.035166085,0.024067972,0.029708862
0.12923430339194653,-0.11924196034617748,-0.09632618696121377,-0.1124471670750545,0.14921898948348467,-0.11577794809031088,0.1503861,-0.12232827,-0.10983517,-0.016459255,-0.034760397,1.000471,0.99984914,0.0047328672,0.016717233,0.00564173,-0.99937934,-0.034774754,0.35066053,-0.31424648,-0.61790085,0.009372317,-0.007240154,0.00089686573,0.048141778,-0.04438691,0.005937122,0.029342651
-0.13909341519710536,-0.1392266464377156,-0.07833996947882944,0.13962634015954636,0.18945482414778142,-0.1293675346325568,-0.10981452,-0.15243852,-0.107636854,-0.011876796,-0.038034443,1.0004326,0.99989414,0.007835145,0.012262343,0.008640929,-0.99923974,-0.03801818,-0.3076795,0.012865007,0.32695198,0.007787058,-0.0071396283,0.0025271412,0.039118342,-0.04438691,0.015525771,0.029327393
-0.04396630940138387,-0.29377488554561043,-0.008393568158446012,0.026379785640830326,0.3272159269387842,-0.035972434964768624,0.0,-0.2985932,0.0,-0.0029610721,-0.038034443,1.0005385,0.99996376,0.007834834,0.0033512844,0.008302115,-0.9992396,-0.03809518,0.015484092,0.40311986,-0.9656582,0.007825543,-0.005088331,-0.0023137855,0.039118342,-0.032355316,-0.013295447,0.029846191
0.08380245034384987,-0.24074885178272928,-0.02851148549059439,-0.07567534466662437,0.25740275685901104,-0.05275957128166065,0.10928426,-0.23717359,0.0,0.004132331,-0.034765963,1.0006837,0.99996215,0.007845582,-0.0037635423,0.008031995,-0.99935895,-0.034889624,-0.070163235,-0.19568413,-0.75266457,0.0074355993,-0.0060413103,-0.006065539,0.039118342,-0.0382047,-0.03579407,0.029891968
0.06141960192132717,0.011990811654922875,-0.12044104151166976,-0.08286983165957809,0.00866003063966652,-0.1337641655726952,0.10169008,0.0,-0.1308857,0.0042686975,-0.031700194,1.0007896,0.99992377,0.011756293,-0.0037874226,0.01195175,-0.9994215,-0.03184371,0.42422724,0.0045785904,0.20647144,0.0095195575,-0.005988211,-0.0050028544,0.051831696,-0.0382047,-0.029606482,0.029968262
0.2053093417804017,0.06515007665841428,-0.1392266464377156,-0.2346202147146576,-0.020650842294589397,-0.1264364473391312,0.24951014,0.054802667,-0.13661465,0.0027586978,-0.024218524,1.0010331,0.99987257,0.015811265,-0.0022370494,0.016084645,-0.9995736,-0.024369206,-0.12741406,0.14533159,0.51316357,0.008834889,-0.005231612,-0.0024120223,0.048023038,-0.033860452,-0.014267013,0.029891968
0.2783200616348209,-0.04023583466429676,-0.02904441045303541,-0.2665957124611186,0.071811638688927,-0.010125574286379316,0.30200326,0.0,0.0,0.0027586978,-0.015310889,1.0012486,0.99987257,0.015791358,-0.002377745,0.016084008,-0.99975085,-0.015473946,-0.08312134,-0.031821236,-0.17468643,0.008375108,-0.00536456,-0.0032733944,0.048023038,-0.033860452,-0.0194141,0.029464722
0.0021316998497640663,-0.08433537530629089,0.0401026034236865,0.027845329287543123,0.1325650844072029,0.007727411955394742,0.0,-0.09654801,0.0,0.00560111,-0.015310889,1.0012407,0.9998618,0.015791295,-0.00521623,0.016040081,-0.9997509,-0.015519607,-0.09276478,0.14175838,0.30781555,0.007869409,-0.0046289456,-0.0017179496,0.048023038,-0.029692233,-0.010363189,0.029403687
-0.215434916066781,-0.10072281790135215,0.0479632466196915,0.2267595715186526,0.1299004595949978,-0.01052526800821008,-0.19155188,-0.103409424,0.0,0.008694476,-0.02104093,1.0011358,0.99984115,0.015821077,-0.008214926,0.015991867,-0.9996454,-0.021290323,0.04380688,0.05849558,-0.17488289,0.008049096,-0.0043133227,-0.0025837743,0.048023038,-0.029692233,-0.015588114,0.029876709
-0.14269065869358222,-0.11351301699993654,-0.0039969372183076245,0.136828484106731,0.15015160816775644,-0.0479632466196915,-0.11021421,-0.1199301,0.0,0.01227067,-0.024327405,1.0010357,0.9998055,0.015847944,-0.011734485,0.015915727,-0.99957,-0.024628896,-0.13993767,-0.18290563,-0.03872204,0.0073091625,-0.005206284,-0.0027644655,0.043854974,-0.035140105,-0.015588114,0.029785156
0.005995405827461438,0.016520673835671518,-0.02118376725703041,-0.0369050536490404,0.0074609494741742334,-0.03490658503988659,0.05099559,0.0,0.0,0.01227067,-0.022802247,1.0010728,0.99980557,0.015830068,-0.011758631,0.015915709,-0.9996064,-0.023105944,0.14497232,-0.25149697,-0.11087704,0.007997478,-0.0064377375,-0.0033050284,0.04818627,-0.042654008,-0.018900756,0.029876709
0.2339540585116063,0.05462480865020421,0.016120980113840753,-0.20970597272054006,-0.011058192970651094,0.025180704475338038,0.25137538,0.0,0.0,0.01227067,-0.015264722,1.0012444,0.99980557,0.015741533,-0.011877823,0.015915258,-0.999752,-0.015579018,-0.0010739639,0.2778185,0.468194,0.007952121,-0.0050164564,-0.0009475332,0.04818627,-0.03433251,-0.0048769396,0.029953003
-0.07367687605747056,-0.053692189965932426,0.0006661562030512709,0.05982082703400412,0.10298774899172647,-0.02531393571594829,0.0,-0.06643776,0.0,0.014259097,-0.015264722,1.0012201,0.99978006,0.015741503,-0.013863366,0.01588432,-0.999752,-0.015610625,-0.05102852,-0.12560448,0.08533764,0.0076572173,-0.0056193965,-0.00051610736,0.04818627,-0.038087074,-0.0048769396,0.029891968
0.20824042907382725,-0.054091883687763194,0.04223430327345057,-0.2391500768954062,0.07141194496709623,0.05915467083095285,0.25324062,-0.050849702,0.0,0.015758421,-0.007797822,1.0013126,0.9997579,0.01563809,-0.015477908,0.015860505,-0.99984074,-0.008178234,0.20622066,-0.0840799,-1.2382789,0.008650035,-0.006011699,-0.006704921,0.054259356,-0.038087074,-0.041343585,0.029449463
0.18239356839543794,0.013323124061025418,0.020517611053979142,-0.1505513018895872,0.03543951000232761,0.01732006127933304,0.1960178,0.0,0.0,0.015758421,-0.0020296052,1.0013576,0.99975795,0.015548929,-0.015567995,0.015860245,-0.9998714,-0.0024184568,0.06017436,-0.5171061,0.28882313,0.008907657,-0.008567171,-0.005227281,0.054259356,-0.053284008,-0.032855526,0.029388428
-0.06808116395183987,-0.02438131703167651,0.041834609551619814,0.08127105677225505,0.05688973974057853,0.01572128639200999,0.0,0.0,0.0,0.015758421,-0.0020296052,1.0013576,0.99975795,0.015548929,-0.015567995,0.015860245,-0.9998714,-0.0024184568,-0.12298207,0.33882102,0.048205376,0.008248208,-0.00683023,-0.004960118,0.050650734,-0.0433421,-0.032855526,0.029342651
-0.0831362941407986,0.02744563556571236,0.09192955602107537,0.09379479338961894,0.011191424211261349,0.05702297098118878,-0.058920182,0.0,0.070693165,0.015754148,-0.0038201157,1.001354,0.9997885,0.013471124,-0.015540673,0.013754856,-0.9998967,-0.0041731624,-0.084636964,-0.05111839,0.10450077,0.0077837827,-0.007051671,-0.004412813,0.050650734,-0.0433421,-0.029742954,0.029785156
0.005995405827461438,0.04343338443894285,0.07540888218540386,0.0006661562030512709,-0.01971822361031762,0.057422664703019544,0.0,0.0,0.06263267,0.015746996,-0.003849611,1.001354,0.99981195,0.0115992855,-0.015540645,0.011882814,-0.99992067,-0.004173155,-0.0019735694,0.09638657,-0.36236858,0.007734996,-0.0065344796,-0.006202592,0.050650734,-0.0433421,-0.040574864,0.029891968
-0.29990352261368214,0.13536294046001823,0.03557274124293786,0.3348101076535687,-0.1028545177511162,-0.03064318534035846,-0.28781146,0.13101093,0.0,0.011821516,-0.012473306,1.0013826,0.99986476,0.011733027,-0.011521223,0.011898737,-0.9998481,-0.012737457,0.15853211,-0.3825956,0.22156334,0.008488981,-0.008414785,-0.0050637624,0.05539441,-0.05479031,-0.033945136,0.029922485
-0.36465390555026567,0.18172741219238667,-0.008393568158446012,0.34813323171459415,-0.1409586525656489,-0.06914701387672191,-0.3268482,0.17324525,0.0,0.0066701276,-0.022192026,1.0013224,0.9999103,0.0118446825,-0.0062636845,0.011963706,-0.999678,-0.022379031,-0.091470644,0.13334663,0.22090054,0.007989183,-0.007705979,-0.003933941,0.05539441,-0.050830767,-0.027385803,0.029693604
-0.16001071997291527,0.058754977109122086,0.003464012255866608,0.1386937214752746,-0.012923430339194655,-0.03583920372415837,-0.11980686,0.0,0.0,0.0066701276,-0.025790839,1.0012426,0.9999103,0.011867194,-0.006221114,0.011963629,-0.9995912,-0.025971767,-0.20639232,0.00724265,0.16414642,0.0069172755,-0.007631236,-0.0030935393,0.049202893,-0.050830767,-0.022461612,0.02999878
-0.07061255752343472,-0.053692189965932426,0.03770444109270193,0.07807350699760894,0.09406125587083944,0.0073277182335639785,0.0,-0.061974514,0.0,0.008493724,-0.025790839,1.0012305,0.9998973,0.011867175,-0.008042271,0.011916326,-0.9995912,-0.025993556,-0.028633155,0.19399038,0.075668335,0.0067395233,-0.006623128,-0.00269973,0.049202893,-0.045129694,-0.022461612,0.029388428
-0.06528330789902453,-0.020517611053979142,0.06928024511733216,0.0747427259823526,0.054091883687763194,0.03557274124293786,0.0,0.0,0.0,0.008493724,-0.025790839,1.0012305,0.9998973,0.011867175,-0.008042271,0.011916326,-0.9995912,-0.025993556,-0.06334908,0.06111218,0.005039215,0.00638908,-0.0062844516,-0.0026610354,0.049202893,-0.045129694,-0.022461612,0.029403687
-0.18372588080154048,-0.004663093421358896,0.03703828488965066,0.199713629674771,0.03970290970185574,-0.0127901990985844,-0.16217439,0.0,0.0,0.008493724,-0.030617261,1.0011061,0.9998973,0.011905942,-0.007985066,0.011916188,-0.9994542,-0.030811718,-0.0920795,-0.07924482,0.18810177,0.0058967373,-0.0066492534,-0.0017072214,0.049202893,-0.045129694,-0.016870452,0.029724121
-0.23049004625573968,-0.049428790266404295,0.012923430339194655,0.23075650873696021,0.08899846872764978,-0.04250076575467108,-0.20107791,-0.05731142,0.0,0.010208771,-0.036634523,1.0009075,0.9998823,0.011953921,-0.009626466,0.011863186,-0.99925077,-0.036838796,-0.10728807,-0.22220987,0.08212376,0.005330813,-0.0077270563,-0.0012880664,0.045995843,-0.051771984,-0.016870452,0.029891968
-0.13176569696354137,-0.018652373685435583,0.014921898948348467,0.1272358347827927,0.04569831552931718,-0.020517611053979142,-0.0999554,0.0,0.0,0.010208771,-0.03962815,1.000798,0.9998823,0.011982713,-0.009590712,0.011863134,-0.99913615,-0.039827295,0.0064365044,0.13593376,-0.22934818,0.0053363414,-0.007008752,-0.0024283668,0.045995843,-0.047704507,-0.02373312,0.029922485
-0.06581623286146555,0.01052526800821008,0.0033307810152563544,0.05595712105630675,0.02904441045303541,-0.02438131703167651,0.0,0.0,0.0,0.010208771,-0.03962815,1.000798,0.9998823,0.011982713,-0.009590712,0.011863134,-0.99913615,-0.039827295,-0.080951855,-0.10348642,-0.09287834,0.0049049007,-0.00749114,-0.0028806166,0.045995843,-0.05079792,-0.02373312,0.029891968
-0.05182695259738887,0.002264931090374321,-0.012257274136143382,0.049562021507014546,0.035173047521107094,-0.04449923436382489,0.0,0.0,0.0,0.010208771,-0.03962815,1.000798,0.9998823,0.011982713,-0.009590712,0.011863134,-0.99913615,-0.039827295,-0.0007460937,-0.10588062,-0.005490303,0.0048766457,-0.007983088,-0.0028936649,0.045995843,-0.05391605,-0.02373312,0.029449463
-0.07061255752343472,-0.016254211354451008,-0.019318529888486854,0.07221133241075775,0.053558958725322174,-0.05182695259738887,0.0,0.0,0.0,0.010208771,-0.03962815,1.000798,0.9998823,0.011982713,-0.009590712,0.011863134,-0.99913615,-0.039827295,-0.142004,-0.032857448,-0.115623474,0.0041422425,-0.008107459,-0.0034573139,0.041831236,-0.05391605,-0.027124055,0.029327393
-0.010791730489430587,-0.0073277182335639785,-0.01732006127933304,0.008393568158446012,0.03930321598002497,-0.036638591167819895,0.0,0.0,0.0,0.010208771,-0.03962815,1.000798,0.9998823,0.011982713,-0.009590712,0.011863134,-0.99913615,-0.039827295,-0.041447524,0.004252672,-0.0940752,0.003914294,-0.0080456585,-0.0039104032,0.041831236,-0.05391605,-0.027124055,0.029327393
-0.05968759579339387,0.03077641658096871,0.00985911180515881,0.062085758124378436,0.0073277182335639785,-0.020384379813368887,0.0,0.0,0.0,0.010208771,-0.03962815,1.000798,0.9998823,0.011982713,-0.009590712,0.011863134,-0.99913615,-0.039827295,0.05910895,-0.18129799,-0.089286804,0.004190267,-0.00891192,-0.004337285,0.041831236,-0.05931327,-0.027124055,0.029769897
0.01372281778285618,-0.04449923436382489,-0.002398162330984575,-0.021849923460081685,0.08753292508093698,-0.025447166956558548,0.0,-0.05411387,0.0,0.011825979,-0.03962815,1.0007815,0.9998655,0.011982697,-0.011206426,0.011798776,-0.99913615,-0.039846465,-0.09409573,0.01143527,0.07725525,0.003698837,-0.008810184,-0.0039293226,0.041831236,-0.05931327,-0.027124055,0.02986145
-0.03490658503988659,-0.06395099549292199,-0.011591117933092112,0.0401026034236865,0.09432771835205994,-0.03863705977697371,0.0,-0.067237146,0.0,0.013884631,-0.03962815,1.0007572,0.99984026,0.011982671,-0.013263165,0.01171681,-0.99913615,-0.039870735,-0.100380294,-0.10468352,0.07268238,0.0031784414,-0.009289551,-0.003546264,0.038760215,-0.062515944,-0.027124055,0.030593872
-0.12803522222645425,-0.002531393571594829,0.004663093421358896,0.1296339971137773,0.03011026037791744,-0.032375191468291764,-0.099289246,0.0,0.0,0.013884631,-0.042584706,1.0006402,0.99984026,0.0120218545,-0.0132277645,0.01171676,-0.9990141,-0.042822316,-0.08840929,-0.04015833,-0.06514263,0.002720503,-0.009443894,-0.0038542459,0.038760215,-0.062515944,-0.027124055,0.029754639
-0.03583920372415837,0.013589586542245924,0.004396630940138387,0.022782542144353463,0.025447166956558548,-0.017852986241774057,0.0,0.0,0.0,0.013884631,-0.042584706,1.0006402,0.99984026,0.0120218545,-0.0132277645,0.01171676,-0.9990141,-0.042822316,-0.08002958,-0.055720657,0.12519646,0.0023067526,-0.009675278,-0.0032089925,0.038760215,-0.062515944,-0.023435175,0.029464722
-0.025447166956558548,-0.028911179212425153,-0.0030643185340358454,0.031042879062189218,0.06301837680865022,-0.02691271060327134,0.0,0.0,0.0,0.013884631,-0.042584706,1.0006402,0.99984026,0.0120218545,-0.0132277645,0.01171676,-0.9990141,-0.042822316,-0.08840929,-0.019807637,-0.11302662,0.0018531724,-0.0097259395,-0.0037580805,0.038760215,-0.062515944,-0.026749952,0.029327393
-0.10805053613491612,0.022782542144353463,0.00159877488732305,0.11657733553397238,0.008393568158446012,-0.03477335379927634,-0.082768574,0.0,0.0,0.013884631,-0.045018703,1.0005366,0.99984026,0.01205403,-0.013198522,0.011716725,-0.9989069,-0.045252223,0.027709499,0.053251743,-0.06901264,0.001982454,-0.009411051,-0.0040843533,0.038760215,-0.062515944,-0.026749952,0.029388428
-0.14668759591188982,0.06235222060559895,0.014788667707738212,0.14295712117480272,-0.0305099540997482,-0.02105053601642016,-0.115277,0.058333296,0.0,0.012147123,-0.04845233,1.0004061,0.99986166,0.012099306,-0.011420839,0.01179524,-0.9987458,-0.048659626,0.026357844,-0.02643305,-0.14207649,0.0021043308,-0.009496161,-0.0047743144,0.038760215,-0.062515944,-0.030979555,0.029769897
-0.12057427275228003,0.05502450237203497,0.019318529888486854,0.11817611042129544,-0.016387442595061263,-0.016387442595061263,-0.08982983,0.0,0.0,0.012147123,-0.051134497,1.0002762,0.99986166,0.012129926,-0.0113884,0.011795199,-0.99861175,-0.05133716,-0.07419863,-0.06130624,-0.10141945,0.001722816,-0.009755211,-0.00525754,0.038760215,-0.062515944,-0.03400654,0.029846191
-0.06648238906451683,0.04250076575467108,-0.0037304747370871167,0.06022052075583488,-0.0058621745868511835,-0.03037672285913795,0.0,0.0,0.0,0.012147123,-0.051134497,1.0002762,0.99986166,0.012129926,-0.0113884,0.011795199,-0.99861175,-0.05133716,-0.08138123,-0.12235838,-0.049943924,0.0013072959,-0.010318227,-0.005480972,0.038760215,-0.066180944,-0.03400654,0.029953003
-0.0095926493239383,0.027312404325102103,-0.00013323124061025415,0.007061255752343471,0.0127901990985844,-0.02131699849764067,0.0,0.0,0.0,0.012147123,-0.051134497,1.0002762,0.99986166,0.012129926,-0.0113884,0.011795199,-0.99861175,-0.05133716,-0.087366745,-0.09841639,0.15476036,0.00086392567,-0.010758718,-0.0046797656,0.038760215,-0.066180944,-0.029378086,0.029907227
-0.057955589665460557,0.004130168458917879,0.013056661579804908,0.057955589665460557,0.03357427263378405,-0.015454823910789483,0.0,0.0,0.0,0.012147123,-0.051134497,1.0002762,0.99986166,0.012129926,-0.0113884,0.011795199,-0.99861175,-0.05133716,-0.047862414,-0.17024243,-0.094236374,0.00062029395,-0.011556136,-0.0051275482,0.038760215,-0.07120748,-0.029378086,0.029525757
-0.02145022973825092,-0.03930321598002497,0.02145022973825092,0.022382848422522698,0.0767411945915064,-0.004529862180748642,0.0,0.0,0.0,0.012147123,-0.051134497,1.0002762,0.99986166,0.012129926,-0.0113884,0.011795199,-0.99861175,-0.05133716,-0.1627841,-0.05532074,0.053006172,-0.00019672798,-0.01177496,-0.0048368797,0.0339837,-0.07120748,-0.029378086,0.029342651
-0.057955589665460557,-0.016387442595061263,-0.0006661562030512709,0.06328483928987072,0.048229709100912004,-0.02997702913730719,0.0,0.0,0.0,0.012147123,-0.051134497,1.0002762,0.99986166,0.012129926,-0.0113884,0.011795199,-0.99861175,-0.05133716,-0.04546821,-0.09482509,-0.06550598,-0.0004230854,-0.012190211,-0.005140225,0.0339837,-0.07120748,-0.029378086,0.029327393
-0.05662327725935802,0.018785604926045835,0.025047473234727783,0.06275191432742971,0.014522205226517705,-0.001732006127933304,0.0,0.0,0.0,0.012147123,-0.051134497,1.0002762,0.99986166,0.012129926,-0.0113884,0.011795199,-0.99861175,-0.05133716,-0.0334972,0.05241832,0.16433716,-0.000588456,-0.011867167,-0.004292838,0.0339837,-0.07120748,-0.02437796,0.030426025
-0.0868667688778857,0.0287779479718149,0.0063950995492922,0.0848683002687319,0.010924961730040842,-0.023848392069235495,-0.056322172,0.0,0.0,0.012147123,-0.052821122,1.00019,0.99986166,0.012149129,-0.011367947,0.011795182,-0.9985238,-0.053020902,-0.04666531,0.0015343428,-0.0072813034,-0.0008188402,-0.011800161,-0.00430778,0.0339837,-0.07120748,-0.02437796,0.029937744
-0.0610199081994964,0.02598009191899956,0.026113323159609816,0.06421745797414251,0.018918836166656093,0.0010658499248820332,0.0,0.0,0.0,0.012147123,-0.052821122,1.00019,0.99986166,0.012149129,-0.011367947,0.011795182,-0.9985238,-0.053020902,-0.14841887,0.030264765,-0.11502075,-0.0015568404,-0.011589835,-0.004861345,0.029560756,-0.07120748,-0.027805626,0.029800415
-0.06741500774878861,0.017719755001163805,0.011457886692481857,0.07234456365136802,0.018252679963604822,-0.016520673835671518,0.0,0.0,0.0,0.012147123,-0.052821122,1.00019,0.99986166,0.012149129,-0.011367947,0.011795182,-0.9985238,-0.053020902,-0.026314601,-0.17803076,0.06813526,-0.0016806291,-0.01242204,-0.004496362,0.029560756,-0.076515585,-0.027805626,0.029815674
-0.07087902000465522,-0.007194486992953725,0.01052526800821008,0.07687442583211665,0.048229709100912004,-0.021983154700691936,0.0,0.0,0.0,0.012147123,-0.052821122,1.00019,0.99986166,0.012149129,-0.011367947,0.011795182,-0.9985238,-0.053020902,-0.059833422,-0.15887716,0.17348099,-0.0019713931,-0.013154316,-0.0036064754,0.029560756,-0.081272006,-0.022611998,0.029937744
-0.13802756527222332,-0.06448392045536301,-0.0010658499248820332,0.14868606452104366,0.1025880552698957,-0.04383307816077362,-0.113811456,-0.07163377,0.0,0.014287711,-0.05622208,0.99998444,0.9998351,0.012187756,-0.01346649,0.01168164,-0.9983376,-0.05644111,-0.13388222,-0.21131831,-0.019823074,-0.0026309474,-0.014145136,-0.0036875585,0.025560796,-0.0875855,-0.022611998,0.029876709
-0.11124808590956223,-0.08247013793774732,-0.057156202221799034,0.10152220534501366,0.10645176124759308,-0.09912404301402909,-0.07683979,-0.082558736,-0.081923224,0.016915806,-0.05850358,0.9998186,0.9997653,0.014688553,-0.015927004,0.014007058,-0.9981725,-0.05878284,-0.11888024,-0.12045765,-0.24221039,-0.003212194,-0.0146766985,-0.0048801727,0.021976395,-0.091217466,-0.029914971,0.030151367
-0.04809647786030175,-0.029310872934255914,-0.11524502312786984,0.028111791768763626,0.06821439519245012,-0.14029249636259766,0.0,0.0,-0.13155186,0.017142221,-0.058438115,0.9998186,0.999701,0.018557625,-0.015926886,0.017869968,-0.99811083,-0.058782395,-0.113705434,-0.21800339,-0.16799068,-0.00376466,-0.015693331,-0.0056957253,0.0186313,-0.097630896,-0.03485708,0.029418945
-0.0014655436467127959,-0.03797090357392244,-0.06515007665841428,-0.005995405827461438,0.07394333853869106,-0.09046401237436258,0.0,0.0,-0.081590146,0.017282635,-0.058396924,0.9998186,0.99965346,0.020959629,-0.01592684,0.020268157,-0.99806505,-0.058782227,-0.099388264,-0.13337445,-0.1009531,-0.0042427783,-0.016281737,-0.0061720125,0.0186313,-0.1015587,-0.037830096,0.029449463
-0.04543185304809667,0.022915773384963714,-0.03557274124293786,0.03943644722063524,0.006261868308681946,-0.057955589665460557,0.0,0.0,-0.05054727,0.01736934,-0.058371264,0.9998186,0.9996213,0.022443824,-0.015926823,0.021749994,-0.9980339,-0.058782164,-0.10255134,0.03399211,-0.018352509,-0.0047343215,-0.016030367,-0.0062329154,0.015619042,-0.1015587,-0.037830096,0.029373169
-0.07021286380160395,-0.011191424211261349,-0.004130168458917879,0.07007963256099368,0.049428790266404295,-0.036238897445989134,0.0,0.0,0.0,0.01736934,-0.058371264,0.9998186,0.9996213,0.022443824,-0.015926823,0.021749994,-0.9980339,-0.058782164,-0.12409915,-0.23535556,0.13487625,-0.0053311456,-0.017126994,-0.0055273697,0.011937879,-0.10854007,-0.03382925,0.029663086
-0.04210107203284032,0.03810413481453269,-0.021849923460081685,0.0302434916185277,-0.0074609494741742334,-0.04729709041664023,0.0,0.0,0.0,0.01736934,-0.058371264,0.9998186,0.9996213,0.022443824,-0.015926823,0.021749994,-0.9980339,-0.058782164,0.04708627,-0.06656432,-0.002790451,-0.0050690584,-0.01737418,-0.005513685,0.011937879,-0.10854007,-0.03382925,0.029922485
0.05942113331217336,0.0816707504940858,-0.009725880564548555,-0.058754977109122086,-0.037171516130260915,-0.018119448722994567,0.08863342,0.07132334,0.0,0.0151942065,-0.05566823,1.0000142,0.99965364,0.022400714,-0.0138127655,0.021877792,-0.998189,-0.056036424,-0.072488934,-0.26291665,-0.10149002,-0.0054061576,-0.018601894,-0.0059935665,0.011937879,-0.11655964,-0.036924932,0.03050232
-0.0005329249624410166,0.08073813180981403,0.012257274136143382,0.006661562030512709,-0.041834609551619814,-0.003863705977697371,0.0,0.07318858,0.0,0.013005308,-0.05566823,1.0000474,0.9996815,0.02240066,-0.011624629,0.022000449,-0.998189,-0.055988535,-0.1021595,0.00044551492,-0.09699631,-0.0058899242,-0.018506657,-0.0064485804,0.008882572,-0.11655964,-0.036924932,0.029907227
-0.03424042883683532,0.08220367545652682,0.0073277182335639785,0.030909647821578966,-0.044632465604435144,-0.01345635530163567,0.0,0.07532028,0.0,0.010749132,-0.05566823,1.0000768,0.9997052,0.022400605,-0.009369255,0.022126762,-0.998189,-0.0559389,-0.05581612,-0.13722107,-0.23252964,-0.006139555,-0.01910023,-0.0075789858,0.008882572,-0.12066982,-0.043889895,0.029953003
0.02851148549059439,0.09819142432975732,-0.0021316998497640663,-0.03877029101758396,-0.055690658575086247,-0.008260336917835759,0.06318625,0.088843256,0.0,0.008098652,-0.053783182,1.0002102,0.9997266,0.022382867,-0.006761959,0.022274973,-0.9982925,-0.05399866,-0.11132102,-0.08689955,0.054789543,-0.006665462,-0.019439226,-0.007267143,0.0055617625,-0.12066982,-0.043889895,0.029830933
0.08420214406568063,0.05342572748471192,0.0037304747370871167,-0.08393568158446013,-0.011058192970651094,0.0005329249624410166,0.11361427,0.0,0.0,0.008098652,-0.050394986,1.0003923,0.99972665,0.022359962,-0.006837781,0.022274846,-0.9984697,-0.050616667,-0.09216741,-0.28094798,-0.17786694,-0.007092972,-0.02074677,-0.008120142,0.0055617625,-0.12904647,-0.049193118,0.029815674
0.11058192970651096,-0.016387442595061263,0.03410719759622506,-0.10778407365369562,0.06128637068071692,0.03130934154340973,0.13872837,0.0,0.0,0.008098652,-0.046280377,1.0005996,0.99972665,0.022331838,-0.0069297473,0.022274658,-0.99866945,-0.04650957,-0.059845682,-0.14864403,-0.14259529,-0.0073567354,-0.021386255,-0.008792518,0.0055617625,-0.13345344,-0.05342076,0.029647827
0.04756355289786074,-0.10711791745064435,0.05209341507860938,-0.03170903526524049,0.14988514568653594,0.031842266505850744,0.06918166,-0.11659932,0.0,0.011522036,-0.044249184,1.0006659,0.99969697,0.022317639,-0.010395416,0.022115491,-0.99876195,-0.04455842,-0.110554054,-0.20256916,-0.35506916,-0.007872722,-0.022292169,-0.010523901,0.0023178135,-0.13939735,-0.06383943,0.029342651
0.009992343045769061,0.0191852986478766,0.05062787143189658,-0.009459418083328047,0.0013323124061025418,0.0334410413931738,0.0,0.0,0.0,0.011522036,-0.044249184,1.0006659,0.99969685,0.022317637,-0.010395415,0.022115491,-0.99876195,-0.04455842,0.14801973,-0.051734418,-0.7477188,-0.00709326,-0.022439381,-0.014209876,0.006672398,-0.13939735,-0.08583653,0.029418945
0.058754977109122086,0.13789433403161305,0.06528330789902453,-0.06035375199644513,-0.0912633998180241,0.05515773361264523,0.08909973,0.12648107,0.056437418,0.0076522846,-0.04159538,1.0008278,0.9997657,0.020598015,-0.0066637835,0.020594275,-0.9989135,-0.04180613,-0.14447287,-0.16026178,0.008610725,-0.0077801584,-0.023128493,-0.014095773,0.002340593,-0.14420256,-0.08583653,0.02998352
0.09845788681097782,0.04703062793541972,0.057422664703019544,-0.08913169996826004,0.00159877488732305,0.057822358424850305,0.12334015,0.0,0.053839408,0.00758524,-0.03791213,1.0009813,0.99979746,0.018961929,-0.0067398325,0.018984038,-0.9990929,-0.038117304,-0.15704647,-0.116309434,-0.20344067,-0.00852649,-0.023594398,-0.015042498,-0.0023610243,-0.1476846,-0.09192708,0.029937744
0.031842266505850744,0.028245023009373885,0.05329249624410167,-0.012257274136143382,0.0014655436467127959,0.03490658503988659,0.05159513,0.0,0.0,0.00758524,-0.03636597,1.0010399,0.99979746,0.018951518,-0.0067691216,0.018984018,-0.9991507,-0.036574025,-0.10317692,-0.028266788,-0.2602234,-0.008999743,-0.02361776,-0.016268402,-0.005449909,-0.1476846,-0.09971758,0.029937744
-0.048229709100912004,0.19771516106561718,0.053026033762881154,0.04862940282274277,-0.17200153162783813,0.03384073511500456,0.0,0.19676057,0.0,0.0017125909,-0.03636597,1.0010843,0.99982,0.018951192,-0.0009037455,0.01919858,-0.9991506,-0.03646265,0.07339866,-0.2784609,-0.43539524,-0.008587751,-0.024891976,-0.018364036,-0.005449909,-0.1559871,-0.11269918,0.029815674
0.005329249624410167,0.21796630963837582,0.06768147023000912,-0.010392036767599824,-0.16374119471000237,0.056090352296917,0.0,0.20275596,0.05810281,-0.004467987,-0.03636897,1.0010948,0.99983853,0.017200168,0.0052053253,0.017671853,-0.9991831,-0.036345303,-0.25845718,-0.053379297,0.106799126,-0.0098370975,-0.025034413,-0.01773822,-0.013238803,-0.1559871,-0.10948067,0.030136108
0.01985145485092787,0.12017457903044926,0.0464977029729787,-0.005062787143189658,-0.08260336917835759,0.03144257278401998,0.0,0.11329119,0.0,-0.007804543,-0.03636897,1.0010799,0.9998157,0.017200073,0.008537648,0.017792987,-0.999183,-0.036286402,-0.17859127,-0.13238797,0.024331093,-0.010680869,-0.02557118,-0.017527873,-0.01849277,-0.15988182,-0.10948067,0.029418945
-0.06022052075583488,0.09219601850229589,0.05622358353752725,0.06794793271122962,-0.04809647786030175,0.03397396635561481,0.0,0.08204846,0.0,-0.010228449,-0.03636897,1.001061,0.99979204,0.017200021,0.01095846,0.017880848,-0.99918306,-0.036243323,-0.10921268,-0.060561895,0.058018684,-0.011173529,-0.025746135,-0.01715014,-0.02171569,-0.15988182,-0.10948067,0.029510498
-0.03424042883683532,0.036638591167819895,0.08993108741192156,0.0479632466196915,0.007061255752343471,0.06594946410207582,0.0,0.0,0.07415718,-0.01030878,-0.036346376,1.001061,0.9998276,0.0149916615,0.010958434,0.01567383,-0.9992201,-0.036243234,-0.14920175,0.08408694,-0.0066251755,-0.01186367,-0.02519697,-0.017097514,-0.026159687,-0.15988182,-0.10948067,0.029785156
-0.026379785640830326,-0.16440735091305364,0.06181929564315793,0.026779479362661087,0.2174333846759348,0.02571362943777905,0.0,-0.17901815,0.0,-0.0049409596,-0.036346376,1.0011163,0.99987197,0.0149914455,0.0055971467,0.015479488,-0.9992201,-0.03632728,-0.31292093,-0.2127941,0.006052017,-0.013368956,-0.026134955,-0.016981766,-0.03553261,-0.16625564,-0.10948067,0.029953003
-0.0528928025222709,-0.1424241962123617,0.019052067407266345,0.06581623286146555,0.16494027587549465,-0.006928024511733216,0.0,-0.14178002,0.0,-0.0007003108,-0.036346376,1.0011373,0.99988675,0.014991311,0.0013617565,0.015325609,-0.9992201,-0.03639285,0.081627525,-0.08111298,-0.24073696,-0.012893974,-0.026409846,-0.018100541,-0.03553261,-0.16625564,-0.1166731,0.029876709
-0.10392036767599824,0.0003996937218307625,0.05342572748471192,0.1028545177511162,0.031042879062189218,0.016653905076281773,-0.073842086,0.0,0.0,-0.0007003108,-0.03856294,1.0010568,0.99988675,0.014988297,0.0013949479,0.0153255705,-0.999137,-0.03860507,-0.18293177,-0.041106373,-0.41360283,-0.013744162,-0.026483329,-0.020078054,-0.041017547,-0.16625564,-0.12907436,0.02998352
-0.09685911192365478,0.012656967857974145,0.017453292519943295,0.08859877500581902,0.022249617181912446,-0.01705359879811253,-0.06318358,0.0,0.0,-0.0007003108,-0.040450722,1.0009841,0.99988675,0.014985666,0.0014232127,0.0153255435,-0.9990624,-0.040489163,-0.16018686,-0.17998916,-0.18550777,-0.014476377,-0.027250858,-0.020905202,-0.045798514,-0.17162763,-0.13461107,0.029846191
-0.003863705977697371,0.008926493120887028,-0.018252679963604822,-0.0063950995492922,0.027712098046932865,-0.040768759626737774,0.0,0.0,0.0,-0.0007003108,-0.040450722,1.0009841,0.99988675,0.014985666,0.0014232127,0.0153255435,-0.9990624,-0.040489163,-0.23560421,-0.17280656,0.20833778,-0.015582016,-0.027978636,-0.019758988,-0.052859165,-0.17680633,-0.12836754,0.029968262
0.07301071985441929,0.06634915782390657,-0.061686064402547675,-0.08007197560676275,-0.027845329287543123,-0.06834762643306039,0.10608671,0.058999453,-0.06879994,-0.0023798905,-0.03728276,1.0011109,0.9998499,0.017043294,0.003136462,0.017448206,-0.9991519,-0.03729859,-0.014808789,-0.19132233,-0.005870819,-0.01557815,-0.028795354,-0.019689547,-0.052859165,-0.18251657,-0.12836754,0.029846191
0.12057427275228003,0.12217304763960307,-0.01692036755750228,-0.12750229726401321,-0.08713323135910622,-0.014122511504686942,0.15358365,0.116555355,0.0,-0.005874952,-0.03267736,1.0012741,0.9998331,0.017057624,0.0065486785,0.017578227,-0.9993125,-0.032640927,-0.21485598,-0.098086536,0.080070496,-0.01657454,-0.02914181,-0.019190745,-0.059294745,-0.18251657,-0.12836754,0.029953003
0.1008560491419624,0.20450995433674016,-0.005196018383799912,-0.10711791745064435,-0.15641347647643838,0.0010658499248820332,0.13353235,0.19236393,0.0,-0.011623598,-0.02868685,1.0013707,0.9997794,0.017083447,0.012220873,0.017765481,-0.9994343,-0.028557073,-0.21655095,-0.14783853,0.3150425,-0.017574422,-0.029735293,-0.017519578,-0.06575797,-0.18692899,-0.118964724,0.029846191
-0.00013323124061025415,0.10658499248820334,0.01345635530163567,0.013589586542245924,-0.05382542120654268,-0.011324655451871604,0.0,0.09210742,0.0,-0.014434123,-0.02868685,1.001338,0.9997412,0.01708338,0.015026874,0.01784563,-0.9994343,-0.028507212,-0.21676707,-0.056858867,0.29498196,-0.018570386,-0.02987091,-0.01595707,-0.07236325,-0.18692899,-0.10997609,0.030471802
0.009992343045769061,-0.01958499236970736,-0.033307810152563545,-0.028111791768763626,0.055690658575086247,-0.04916232778518379,0.0,0.0,0.0,-0.014434123,-0.02868685,1.001338,0.9997412,0.01708338,0.015026874,0.01784563,-0.9994343,-0.028507212,-0.32809746,0.10834105,0.3440628,-0.020118022,-0.02917985,-0.014156972,-0.08220577,-0.1836789,-0.09965463,0.02999878
0.23128943369940122,-0.13309800936964392,-0.03357427263378405,-0.24314701411371384,0.1765313938085868,-0.027712098046932865,0.2667636,-0.14291249,0.0,-0.010213246,-0.020808065,1.0016246,0.999795,0.017201452,0.010678208,0.01772493,-0.9996283,-0.020718003,-0.2553938,0.058824807,0.41454506,-0.0212944,-0.028739827,-0.012013461,-0.089738674,-0.1836789,-0.08742753,0.02949524
0.21010566644237083,-0.20184532952453507,-0.04036906590490701,-0.19478407377219156,0.24154823922639082,-0.04276722823589159,0.23199023,-0.20979457,0.0,-0.0040376964,-0.013979161,1.0018294,0.9998412,0.017273914,0.0043965764,0.017596794,-0.99974704,-0.014011676,-0.23473957,0.1502997,0.026064873,-0.022361625,-0.027844628,-0.011823069,-0.0966373,-0.17926182,-0.08742753,0.029388428
0.04849617158213252,-0.27712098046932865,-0.06288514556803997,-0.046764165454199216,0.3104287906218922,-0.09605972447999325,0.07717553,-0.28187266,-0.08325554,0.004286802,-0.011719173,1.0018945,0.9997977,0.019726953,-0.003916292,0.019924335,-0.99973077,-0.011892094,-0.024846109,-0.31386566,-0.048732758,-0.022374049,-0.029274734,-0.012007617,-0.0966373,-0.18847626,-0.08742753,0.02935791
0.0433001531983326,-0.22715926524048335,-0.07234456365136802,-0.05222664631921963,0.25740275685901104,-0.09632618696121377,0.07730876,-0.23037879,-0.08811847,0.011206578,-0.009396155,1.0018921,0.9996916,0.022346774,-0.010836052,0.022471735,-0.9997003,-0.009722289,-0.16521749,-0.15849176,0.24338055,-0.023088265,-0.029920818,-0.010730677,-0.101568416,-0.19320664,-0.080163546,0.029846191
0.09459418083328046,-0.1805283310268944,-0.07460949474174233,-0.10938284854101867,0.20997243520176057,-0.0846018377875114,0.13153388,-0.18334816,-0.08338877,0.016726637,-0.005424925,1.0018675,0.9995578,0.024798093,-0.01640824,0.024912588,-0.9996721,-0.0059108716,-0.117202744,-0.17455396,-0.055675507,-0.023558838,-0.030643985,-0.010955402,-0.10507541,-0.19842973,-0.080163546,0.029922485
0.2857810111089952,0.05076110267250683,-0.049695252747624805,-0.2924425731395079,-0.031842266505850744,-0.029843797896696934,0.31865716,0.053203896,0.0,0.015129231,0.00414251,1.001946,0.9995831,0.024641382,-0.015051317,0.02492087,-0.99968266,0.0036751516,0.022658214,-0.31805336,-0.26586437,-0.023327753,-0.03208103,-0.012229947,-0.10507541,-0.20796125,-0.08813104,0.029968262
0.20237825448697608,0.12497090369241841,-0.041301684589178794,-0.18172741219238667,-0.06928024511733216,-0.0334410413931738,0.2215982,0.10902779,0.0,0.0118555,0.010796346,1.0019679,0.9996274,0.024541307,-0.011948888,0.0249083,-0.99963576,0.010395149,-0.28230232,0.09220571,0.6042328,-0.024622627,-0.0314596,-0.009147634,-0.11353552,-0.20796125,-0.07002324,0.029968262
-0.005329249624410167,-0.00479632466196915,-0.006794793271122962,0.004263399699528133,0.040768759626737774,-0.023581929588014985,0.0,0.0,0.0,0.0118555,0.010796346,1.0019679,0.9996274,0.024541307,-0.011948888,0.0249083,-0.99963576,0.010395149,-0.09435751,0.32204905,0.06793213,-0.0249713,-0.029692058,-0.008762235,-0.11353552,-0.19846724,-0.07002324,0.02947998
0.009192955602107537,-0.058355283387291325,0.049695252747624805,-0.005462480865020421,0.09073047485558308,0.02598009191899956,0.0,-0.06264067,0.0,0.013698118,0.010796346,1.0019461,0.99960375,0.024541266,-0.013787178,0.024927417,-0.99963576,0.010349343,-0.1849176,0.18917087,-0.22276974,-0.025771031,-0.028597742,-0.009832272,-0.118964314,-0.19291358,-0.07656329,0.02935791
-0.03410719759622506,0.027712098046932865,0.012923430339194655,0.037837672333312186,0.009059724361497283,-0.019052067407266345,0.0,0.0,0.0,0.013698118,0.010796346,1.0019461,0.99960375,0.024541266,-0.013787178,0.024927417,-0.99963576,0.010349343,-0.21125382,-0.05264349,-0.1162281,-0.026698444,-0.028717972,-0.010364251,-0.12516306,-0.19291358,-0.079973735,0.029342651
-0.022116385941302188,0.012656967857974145,0.0033307810152563544,0.017586523760553547,0.024914241994117528,-0.017986217482384312,0.0,0.0,0.0,0.013698118,0.010796346,1.0019461,0.99960375,0.024541266,-0.013787178,0.024927417,-0.99963576,0.010349343,-0.12266836,0.028759368,-0.020460129,-0.027178293,-0.028430587,-0.01041473,-0.12889537,-0.19291358,-0.079973735,0.030426025
-0.07221133241075775,-0.029843797896696934,0.03477335379927634,0.08100459429103453,0.048895865303963275,-0.0019984686091538122,0.0,0.0,0.0,0.013698118,0.010796346,1.0019461,0.99960375,0.024541266,-0.013787178,0.024927417,-0.99963576,0.010349343,-0.049645215,0.18438247,0.045380592,-0.027290627,-0.02736652,-0.010135753,-0.12889537,-0.18739921,-0.079973735,0.029907227
-0.10791730489430588,0.001732006127933304,0.01372281778285618,0.11258039831566477,0.03703828488965066,-0.020517611053979142,-0.08070349,0.0,0.0,0.013698118,0.008375564,1.0019722,0.99960375,0.024574578,-0.013727885,0.024927342,-0.9996578,0.007934119,-0.23519585,-0.09821428,0.055923462,-0.028330153,-0.02772076,-0.009805457,-0.1359366,-0.18739921,-0.079973735,0.029937744
-0.07953905064432175,-0.04236753451406082,0.053558958725322174,0.08366921910323963,0.08180398173469605,0.02371516082862524,-0.05205878,-0.05018355,0.0,0.0152026955,0.0068147634,1.0019647,0.99958205,0.024595937,-0.01519061,0.024939222,-0.99966884,0.006339484,-0.24374963,-0.03050399,0.017682076,-0.02940725,-0.027734678,-0.009668019,-0.1432302,-0.18739921,-0.079973735,0.029922485
-0.05968759579339387,-0.0848683002687319,0.10964931102223918,0.06062021447766565,0.12270597260204408,0.07794027575699868,0.0,-0.091884926,0.09001169,0.017978705,0.006773775,1.0019228,0.99959916,0.02190078,-0.017941557,0.022261366,-0.9997326,0.0062708235,-0.10436373,-0.027746312,0.07910538,-0.029782033,-0.027734736,-0.009224151,-0.14635621,-0.18739921,-0.079973735,0.029953003
-0.05196018383799912,-0.05529096485325548,0.017986217482384312,0.03877029101758396,0.08406891282507037,-0.01851914244482533,0.0,-0.05777773,0.0,0.0197047,0.006773775,1.0018919,0.9995668,0.021900749,-0.01966352,0.02227217,-0.9997326,0.0062324745,-0.093333185,-0.052885428,-0.14806843,-0.030099789,-0.027860489,-0.009918372,-0.14635621,-0.18739921,-0.084388494,0.029815674
-0.024114854550456002,-0.07847320071943971,-0.053026033762881154,0.023581929588014985,0.10831699861613663,-0.09152986229924462,0.0,-0.081492886,-0.07606105,0.022137318,0.006818713,1.0018437,0.9994632,0.024180204,-0.022105783,0.024567299,-0.9996791,0.006178037,-0.1532122,-0.27235338,-0.16679573,-0.030715352,-0.029082954,-0.010702759,-0.15095004,-0.19556533,-0.089389615,0.02998352
-0.03264165394951227,-0.0030643185340358454,-0.07274425737319877,0.020650842294589397,0.044898928085655654,-0.0831362941407986,0.0,0.0,-0.08172338,0.022120873,0.0068721017,1.0018437,0.9994019,0.026590526,-0.022105718,0.026978146,-0.999617,0.006178019,0.08036828,0.23474392,-0.029129028,-0.030159933,-0.02776382,-0.01079489,-0.15095004,-0.18863791,-0.089389615,0.029510498
-0.02904441045303541,0.00159877488732305,0.010125574286379316,0.03450689131805583,0.035705972483548114,-0.017186830038722786,0.0,0.0,0.0,0.022120873,0.0068721017,1.0018437,0.99940205,0.02659053,-0.02210572,0.026978146,-0.999617,0.006178019,-0.13151857,-0.026224043,-0.055464745,-0.030666726,-0.027756121,-0.011018239,-0.15482922,-0.18863791,-0.089389615,0.02949524
-0.029577335415476424,0.001732006127933304,0.0095926493239383,0.03317457891195329,0.031176110302799476,-0.016120980113840753,0.0,0.0,0.0,0.022120873,0.0068721017,1.0018437,0.99940205,0.02659053,-0.02210572,0.026978146,-0.999617,0.006178019,-0.18897942,-0.05016606,0.033120155,-0.03145829,-0.02786817,-0.010797547,-0.16037437,-0.18863791,-0.089389615,0.029342651
-0.02971056665608668,0.006928024511733216,0.010258805526989571,0.02971056665608668,0.03503981628049684,-0.015454823910789483,0.0,0.0,0.0,0.022120873,0.0068721017,1.0018437,0.99940205,0.02659053,-0.02210572,0.026978146,-0.999617,0.006178019,-0.13510987,-0.06931967,-0.01835537,-0.031976543,-0.028075429,-0.0108353365,-0.16438422,-0.18863791,-0.089389615,0.029678345
-0.027845329287543123,0.0002664624812205083,0.006261868308681946,0.031042879062189218,0.031575804024630234,-0.014122511504686942,0.0,0.0,0.0,0.022120873,0.0068721017,1.0018437,0.99940205,0.02659053,-0.02210572,0.026978146,-0.999617,0.006178019,-0.10757656,-0.029815346,0.036711693,-0.032354545,-0.02808413,-0.0105976015,-0.16767047,-0.18863791,-0.089389615,0.030548096
-0.02851148549059439,0.0006661562030512709,0.008260336917835759,0.03170903526524049,0.03743797861148142,-0.012390505376753637,0.0,0.0,0.0,0.022120873,0.0068721017,1.0018437,0.99940205,0.02659053,-0.02210572,0.026978146,-0.999617,0.006178019,-0.096802644,0.018068686,0.028331757,-0.032676786,-0.027853364,-0.010402955,-0.16767047,-0.18863791,-0.089389615,0.029953003
-0.029177641693645662,0.005062787143189658,0.0075941807147844875,0.029177641693645662,0.03503981628049684,-0.01732006127933304,0.0,0.0,0.0,0.022120873,0.0068721017,1.0018437,0.99940205,0.02659053,-0.02210572,0.026978146,-0.999617,0.006178019,-0.1578548,-0.05495446,-0.08419514,-0.033302676,-0.02798887,-0.010771916,-0.17241074,-0.18863791,-0.089389615,0.030029297
-0.026113323159609816,0.002531393571594829,0.009725880564548555,0.031842266505850744,0.03863705977697371,-0.015987748873230498,0.0,0.0,0.0,0.022120873,0.0068721017,1.0018437,0.99940205,0.02659053,-0.02210572,0.026978146,-0.999617,0.006178019,-0.20095041,-0.053757362,0.027134895,-0.034140915,-0.028117713,-0.010582383,-0.17832556,-0.18863791,-0.089389615,0.029434204
-0.03037672285913795,-0.00159877488732305,0.008393568158446012,0.02904441045303541,0.03130934154340973,-0.01732006127933304,0.0,0.0,0.0,0.022120873,0.0068721017,1.0018437,0.99940205,0.02659053,-0.02210572,0.026978146,-0.999617,0.006178019,-0.14468668,-0.016647238,-0.05187416,-0.034693643,-0.02806036,-0.010788841,-0.18258871,-0.18863791,-0.089389615,0.029464722
-0.028911179212425153,0.0019984686091538122,0.007993874436615249,0.032375191468291764,0.03397396635561481,-0.01692036755750228,0.0,0.0,0.0,0.022120873,0.0068721017,1.0018437,0.99940205,0.02659053,-0.02210572,0.026978146,-0.999617,0.006178019,-0.13032147,-0.059742868,0.022346497,-0.035171784,-0.028218772,-0.0106231645,-0.18643059,-0.18863791,-0.089389615,0.02947998
-0.029310872934255914,0.0030643185340358454,0.012656967857974145,0.03424042883683532,0.03743797861148142,-0.010658499248820334,0.0,0.0,0.0,0.022120873,0.0068721017,1.0018437,0.99940205,0.02659053,-0.02210572,0.026978146,-0.999617,0.006178019,-0.13630697,-0.041786354,-0.0027923584,-0.03567746,-0.02828661,-0.01058401,-0.19049051,-0.18863791,-0.089389615,0.029785156
-0.03011026037791744,0.004529862180748642,0.006794793271122962,0.028378254249984136,0.03450689131805583,-0.015588055151399738,0.0,0.0,0.0,0.022120873,0.0068721017,1.0018437,0.99940205,0.02659053,-0.02210572,0.026978146,-0.999617,0.006178019,-0.10039395,-0.019041438,-0.032720566,-0.03600104,-0.028240385,-0.010694693,-0.19348688,-0.18863791,-0.089389615,0.029846191
-0.032108728987071254,0.00479632466196915,0.011990811654922875,0.03370750387439431,0.03290811643073278,-0.015987748873230498,0.0,0.0,0.0,0.022120873,0.0068721017,1.0018437,0.99940205,0.02659053,-0.02210572,0.026978146,-0.999617,0.006178019,-0.08962004,-0.060939968,-0.06145096,-0.036269136,-0.028403882,-0.010948474,-0.19348688,-0.18863791,-0.089389615,0.02986145
-0.028111791768763626,0.002531393571594829,0.007194486992953725,0.03170903526524049,0.03464012255866608,-0.014255742745297196,0.0,0.0,0.0,0.022120873,0.0068721017,1.0018437,0.99940205,0.02659053,-0.02210572,0.026978146,-0.999617,0.006178019,-0.1566577,-0.062137067,0.028331757,-0.036871076,-0.028572548,-0.010752073,-0.19817448,-0.18863791,-0.089389615,0.029922485
-0.03384073511500456,0.0018652373685435584,0.008526799399056265,0.02571362943777905,0.03317457891195329,-0.017986217482384312,0.0,0.0,0.0,0.022120873,0.0068721017,1.0018437,0.99940205,0.02659053,-0.02210572,0.026978146,-0.999617,0.006178019,-0.1614461,-0.047771856,-0.06384468,-0.03749395,-0.028668545,-0.011017535,-0.20299304,-0.18863791,-0.089389615,0.029846191
-0.02851148549059439,0.0039969372183076245,0.00866003063966652,0.032241960227681506,0.031176110302799476,-0.01692036755750228,0.0,0.0,0.0,0.022120873,0.0068721017,1.0018437,0.99940205,0.02659053,-0.02210572,0.026978146,-0.999617,0.006178019,-0.11595626,-0.042983457,-0.07222462,-0.037886266,-0.028740121,-0.01132357,-0.2064645,-0.18863791,-0.089389615,0.029937744
-0.031042879062189218,0.005462480865020421,0.0074609494741742334,0.0305099540997482,0.03170903526524049,-0.016387442595061263,0.0,0.0,0.0,0.022120873,0.0068721017,1.0018437,0.99940205,0.02659053,-0.02210572,0.026978146,-0.999617,0.006178019,-0.12313887,-0.017844338,-0.054267883,-0.03831253,-0.028685642,-0.011538291,-0.21021488,-0.18863791,-0.089389615,0.030456543
-0.032108728987071254,0.0039969372183076245,0.009326186842717792,0.032108728987071254,0.03490658503988659,-0.017186830038722786,0.0,0.0,0.0,0.022120873,0.0068721017,1.0018437,0.99940205,0.02659053,-0.02210572,0.026978146,-0.999617,0.006178019,-0.10159105,-0.03699795,0.054668427,-0.03862892,-0.028727205,-0.011207257,-0.21321599,-0.18863791,-0.089389615,0.029541016
-0.029310872934255914,-0.00013323124061025415,0.013189892820415163,0.0302434916185277,0.03490658503988659,-0.015987748873230498,0.0,0.0,0.0,0.022120873,0.0068721017,1.0018437,0.99940205,0.02659053,-0.02210572,0.026978146,-0.999617,0.006178019,-0.14947508,-0.05495446,-0.037508965,-0.03918315,-0.028858341,-0.011338767,-0.21760426,-0.18863791,-0.089389615,0.02935791
-0.03144257278401998,0.0,0.0057289433462409285,0.02904441045303541,0.03424042883683532,-0.01505513018895872,0.0,0.0,0.0,0.022120873,0.0068721017,1.0018437,0.99940205,0.02659053,-0.02210572,0.026978146,-0.999617,0.006178019,-0.077649035,-0.0070704296,-0.021945953,-0.03937548,-0.028749403,-0.011391803,-0.21760426,-0.18863791,-0.089389615,0.029510498
-0.03037672285913795,0.004929555902579405,0.008926493120887028,0.0305099540997482,0.03370750387439431,-0.016254211354451008,0.0,0.0,0.0,0.022120873,0.0068721017,1.0018437,0.99940205,0.02659053,-0.02210572,0.026978146,-0.999617,0.006178019,-0.1638403,-0.016647238,-0.01955223,-0.039997805,-0.02868889,-0.011432605,-0.22248927,-0.18863791,-0.089389615,0.029815674
-0.026779479362661087,0.0010658499248820332,0.008127105677225504,0.02851148549059439,0.032108728987071254,-0.01438897398590745,0.0,0.0,0.0,0.022120873,0.0068721017,1.0018437,0.99940205,0.02659053,-0.02210572,0.026978146,-0.999617,0.006178019,-0.1578548,-0.029815346,-0.007580757,-0.04058709,-0.028694523,-0.011413346,-0.22721508,-0.18863791,-0.089389615,0.029937744
-0.029444104174866172,0.004263399699528133,0.009725880564548555,0.03011026037791744,0.029843797896696934,-0.015454823910789483,0.0,0.0,0.0,0.022120873,0.0068721017,1.0018437,0.99940205,0.02659053,-0.02210572,0.026978146,-0.999617,0.006178019,-0.14109537,-0.014253035,-0.037508965,-0.04108963,-0.028622316,-0.011543824,-0.23142624,-0.18863791,-0.089389615,0.029846191
-0.03170903526524049,0.0031975497746461,0.01185758041431262,0.032108728987071254,0.03530627876171736,-0.012523736617363892,0.0,0.0,0.0,0.022120873,0.0068721017,1.0018437,0.99940205,0.02659053,-0.02210572,0.026978146,-0.999617,0.006178019,-0.11835046,-0.008267529,-0.0015954971,-0.041475933,-0.028520543,-0.011494083,-0.23496757,-0.18863791,-0.089389615,0.029922485
-0.029177641693645662,0.002398162330984575,0.008127105677225504,0.026779479362661087,0.03503981628049684,-0.012523736617363892,0.0,0.0,0.0,0.022120873,0.0068721017,1.0018437,0.99940205,0.02659053,-0.02210572,0.026978146,-0.999617,0.006178019,-0.1662345,-0.046574757,-0.026734352,-0.042099725,-0.028610814,-0.011570285,-0.23987831,-0.18863791,-0.089389615,0.029541016
-0.02997702913730719,0.0031975497746461,0.008526799399056265,0.0305099540997482,0.03583920372415837,-0.018385911204215073,0.0,0.0,0.0,0.022120873,0.0068721017,1.0018437,0.99940205,0.02659053,-0.02210572,0.026978146,-0.999617,0.006178019,-0.1614461,-0.03340665,-0.029129028,-0.042696457,-0.028634794,-0.011658079,-0.2446205,-0.18863791,-0.089389615,0.029373169
-0.0302434916185277,0.004130168458917879,0.010125574286379316,0.02971056665608668,0.033041347671343035,-0.015588055151399738,0.0,0.0,0.0,0.022120873,0.0068721017,1.0018437,0.99940205,0.02659053,-0.02210572,0.026978146,-0.999617,0.006178019,-0.1853881,-0.0070704296,-0.0039901733,-0.043409918,-0.028526973,-0.011619739,-0.25008574,-0.18863791,-0.089389615,0.02947998
-0.0287779479718149,0.0058621745868511835,0.008793261880276773,0.02997702913730719,0.031575804024630234,-0.017852986241774057,0.0,0.0,0.0,0.022120873,0.0068721017,1.0018437,0.99940205,0.02659053,-0.02210572,0.026978146,-0.999617,0.006178019,-0.1865852,-0.053757362,0.005586624,-0.04412579,-0.028653126,-0.011533707,-0.25562042,-0.18863791,-0.089389615,0.029663086
-0.03144257278401998,0.000799387443661525,0.011457886692481857,0.029177641693645662,0.03357427263378405,-0.01438897398590745,0.0,0.0,0.0,0.022120873,0.0068721017,1.0018437,0.99940205,0.02659053,-0.02210572,0.026978146,-0.999617,0.006178019,-0.07405773,-0.04896896,-0.0051870346,-0.04427545,-0.028754706,-0.011501974,-0.25562042,-0.18863791,-0.089389615,0.030517578
-0.03037672285913795,0.002398162330984575,0.006528330789902454,0.026113323159609816,0.03850382853636345,-0.015188361429568975,0.0,0.0,0.0,0.022120873,0.0068721017,1.0018437,0.99940205,0.02659053,-0.02210572,0.026978146,-0.999617,0.006178019,-0.080043234,0.01208318,-0.03631115,-0.04445429,-0.028550515,-0.01162602,-0.25562042,-0.18863791,-0.089389615,0.029891968
-0.029177641693645662,0.005062787143189658,0.008127105677225504,0.028378254249984136,0.033041347671343035,-0.01438897398590745,0.0,0.0,0.0,0.022120873,0.0068721017,1.0018437,0.99940205,0.02659053,-0.02210572,0.026978146,-0.999617,0.006178019,-0.058495417,-0.058545765,0.02474022,-0.0445245,-0.028700491,-0.011444189,-0.25562042,-0.18863791,-0.089389615,0.029907227
-0.02584686067838931,0.0031975497746461,0.009992343045769061,0.03264165394951227,0.03370750387439431,-0.013189892820415163,0.0,0.0,0.0,0.022120873,0.0068721017,1.0018437,0.99940205,0.02659053,-0.02210572,0.026978146,-0.999617,0.006178019,-0.1746142,-0.04896896,-0.050676346,-0.045174945,-0.028801834,-0.01164035,-0.2607494,-0.18863791,-0.089389615,0.029373169
-0.03490658503988659,0.003464012255866608,0.009059724361497283,0.02904441045303541,0.036105666205378875,-0.01705359879811253,0.0,0.0,0.0,0.022120873,0.0068721017,1.0018437,0.99940205,0.02659053,-0.02210572,0.026978146,-0.999617,0.006178019,-0.14229247,-0.032209545,-0.047085762,-0.045660533,-0.028818874,-0.011817577,-0.26492247,-0.18863791,-0.089389615,0.029327393
-0.028911179212425153,0.005329249624410167,0.007061255752343471,0.029310872934255914,0.03503981628049684,-0.01185758041431262,0.0,0.0,0.0,0.022120873,0.0068721017,1.0018437,0.99940205,0.02659053,-0.02210572,0.026978146,-0.999617,0.006178019,-0.160249,-0.03819505,-0.044691086,-0.04623348,-0.028865755,-0.011981945,-0.26965395,-0.18863791,-0.089389615,0.029525757
-0.03011026037791744,0.004396630940138387,0.007860643196004996,0.02971056665608668,0.03464012255866608,-0.017852986241774057,0.0,0.0,0.0,0.022120873,0.0068721017,1.0018437,0.99940205,0.02659053,-0.02210572,0.026978146,-0.999617,0.006178019,-0.1805997,-0.041786354,0.006784439,-0.046905313,-0.028930357,-0.011888112,-0.27501383,-0.18863791,-0.089389615,0.029678345
-0.029843797896696934,0.00159877488732305,0.0095926493239383,0.032241960227681506,0.03370750387439431,-0.015588055151399738,0.0,0.0,0.0,0.022120873,0.0068721017,1.0018437,0.99940205,0.02659053,-0.02210572,0.026978146,-0.999617,0.006178019,-0.12673017,-0.029815346,-0.038705826,-0.047304437,-0.028934782,-0.0120222,-0.27881172,-0.18863791,-0.089389615,0.029968262
-0.02851148549059439,0.005196018383799912,0.008526799399056265,0.032108728987071254,0.03543951000232761,-0.01505513018895872,0.0,0.0,0.0,0.022120873,0.0068721017,1.0018437,0.99940205,0.02659053,-0.02210572,0.026978146,-0.999617,0.006178019,-0.095605545,-0.03699795,-0.011172295,-0.047545943,-0.0289751,-0.01201795,-0.27881172,-0.18863791,-0.089389615,0.029815674
-0.029444104174866172,0.002264931090374321,0.0127901990985844,0.028911179212425153,0.03743797861148142,-0.0095926493239383,0.0,0.0,0.0,0.022120873,0.0068721017,1.0018437,0.99940205,0.02659053,-0.02210572,0.026978146,-0.999617,0.006178019,-0.14348957,-0.026224043,0.034317017,-0.04802566,-0.028961346,-0.011786276,-0.28311843,-0.18863791,-0.089389615,0.030014038
-0.02997702913730719,0.004130168458917879,0.0058621745868511835,0.03424042883683532,0.03264165394951227,-0.016787136316892024,0.0,0.0,0.0,0.022120873,0.0068721017,1.0018437,0.99940205,0.02659053,-0.02210572,0.026978146,-0.999617,0.006178019,-0.17102289,0.006097682,-0.026734352,-0.048640646,-0.028786052,-0.011861016,-0.28817323,-0.18863791,-0.089389615,0.029556274
-0.0287779479718149,0.005196018383799912,0.009725880564548555,0.03264165394951227,0.03144257278401998,-0.014788667707738212,0.0,0.0,0.0,0.022120873,0.0068721017,1.0018437,0.99940205,0.02659053,-0.02210572,0.026978146,-0.999617,0.006178019,-0.14827798,-0.026224043,-0.04109955,-0.049138833,-0.028773243,-0.0120072095,-0.2925241,-0.18863791,-0.089389615,0.029342651
-0.0302434916185277,0.004263399699528133,0.01345635530163567,0.031842266505850744,0.035972434964768624,-0.016520673835671518,0.0,0.0,0.0,0.022120873,0.0068721017,1.0018437,0.99940205,0.02659053,-0.02210572,0.026978146,-0.999617,0.006178019,-0.12074466,-0.020238541,0.009178162,-0.049496863,-0.028730568,-0.011901283,-0.2961555,-0.18863791,-0.089389615,0.030075073
-0.031176110302799476,0.004263399699528133,0.008926493120887028,0.03077641658096871,0.03437366007744557,-0.01438897398590745,0.0,0.0,0.0,0.022120873,0.0068721017,1.0018437,0.99940205,0.02659053,-0.02210572,0.026978146,-0.999617,0.006178019,-0.1674316,-0.047771856,-0.014763832,-0.050086536,-0.028825775,-0.011915596,-0.30113482,-0.18863791,-0.089389615,0.02973938
-0.02717917308449185,0.0033307810152563544,0.009725880564548555,0.032241960227681506,0.032241960227681506,-0.016254211354451008,0.0,0.0,0.0,0.022120873,0.0068721017,1.0018437,0.99940205,0.02659053,-0.02210572,0.026978146,-0.999617,0.006178019,-0.13032147,-0.045377657,-0.044691086,-0.050487712,-0.028908534,-0.012079474,-0.3050483,-0.18863791,-0.089389615,0.030029297
-0.032774885190122525,0.0035972434964768626,0.006128637068071691,0.029843797896696934,0.03370750387439431,-0.016653905076281773,0.0,0.0,0.0,0.022120873,0.0068721017,1.0018437,0.99940205,0.02659053,-0.02210572,0.026978146,-0.999617,0.006178019,-0.13750407,-0.041786354,-0.048282623,-0.050922796,-0.028972922,-0.012260489,-0.30915225,-0.18863791,-0.089389615,0.029846191
-0.0287779479718149,0.004396630940138387,0.010791730489430587,0.032108728987071254,0.033307810152563545,-0.016787136316892024,0.0,0.0,0.0,0.022120873,0.0068721017,1.0018437,0.99940205,0.02659053,-0.02210572,0.026978146,-0.999617,0.006178019,-0.15067218,-0.03460375,-0.07461834,-0.051421545,-0.029001076,-0.012572278,-0.31368372,-0.18863791,-0.089389615,0.030075073
-0.026779479362661087,0.006261868308681946,0.007993874436615249,0.03037672285913795,0.03583920372415837,-0.014655436467127957,0.0,0.0,0.0,0.022120873,0.0068721017,1.0018437,0.99940205,0.02659053,-0.02210572,0.026978146,-0.999617,0.006178019,-0.11595626,-0.03699795,0.0031929016,-0.05174422,-0.029041061,-0.012493452,-0.31710386,-0.18863791,-0.089389615,0.02949524
-0.031042879062189218,0.0009326186842717792,0.007194486992953725,0.032241960227681506,0.031042879062189218,-0.014921898948348467,0.0,0.0,0.0,0.022120873,0.0068721017,1.0018437,0.99940205,0.02659053,-0.02210572,0.026978146,-0.999617,0.006178019,-0.13870117,-0.03460375,0.030726433,-0.052179005,-0.029068876,-0.012277353,-0.321197,-0.18863791,-0.089389615,0.029510498
-0.02971056665608668,0.004529862180748642,0.008260336917835759,0.02997702913730719,0.032774885190122525,-0.017586523760553547,0.0,0.0,0.0,0.022120873,0.0068721017,1.0018437,0.99940205,0.02659053,-0.02210572,0.026978146,-0.999617,0.006178019,-0.11475916,-0.008267529,-0.060253143,-0.052491907,-0.02896487,-0.012517232,-0.32456434,-0.18863791,-0.089389615,0.029342651
-0.029577335415476424,0.0018652373685435584,0.008526799399056265,0.0334410413931738,0.03370750387439431,-0.015454823910789483,0.0,0.0,0.0,0.022120873,0.0068721017,1.0018437,0.99940205,0.02659053,-0.02210572,0.026978146,-0.999617,0.006178019,-0.21531563,-0.047771856,-0.06145096,-0.05330603,-0.029058905,-0.012761901,-0.33096442,-0.18863791,-0.089389615,0.029724121
-0.0287779479718149,0.004130168458917879,0.011724349173702367,0.03170903526524049,0.03424042883683532,-0.017586523760553547,0.0,0.0,0.0,0.022120873,0.0068721017,1.0018437,0.99940205,0.02659053,-0.02210572,0.026978146,-0.999617,0.006178019,-0.19017652,-0.0022820272,-0.007580757,-0.053990383,-0.028925022,-0.012735995,-0.33666658,-0.18863791,-0.089389615,0.02998352
-0.02971056665608668,-0.00013323124061025415,0.009459418083328047,0.028644716731204646,0.03144257278401998,-0.01732006127933304,0.0,0.0,0.0,0.022120873,0.0068721017,1.0018437,0.99940205,0.02659053,-0.02210572,0.026978146,-0.999617,0.006178019,-0.1686287,-0.047771856,-0.02553749,-0.054563574,-0.029019257,-0.0128000025,-0.34169695,-0.18863791,-0.089389615,0.029830933
-0.029843797896696934,0.004529862180748642,0.0074609494741742334,0.03064318534035846,0.032375191468291764,-0.01572128639200999,0.0,0.0,0.0,0.022120873,0.0068721017,1.0018437,0.99940205,0.02659053,-0.02210572,0.026978146,-0.999617,0.006178019,-0.10757656,-0.029815346,0.025938034,-0.05482864,-0.029023238,-0.0126063125,-0.34493232,-0.18863791,-0.089389615,0.030075073
-0.03170903526524049,0.0037304747370871167,0.006261868308681946,0.032108728987071254,0.03317457891195329,-0.018918836166656093,0.0,0.0,0.0,0.022120873,0.0068721017,1.0018437,0.99940205,0.02659053,-0.02210572,0.026978146,-0.999617,0.006178019,-0.15186928,0.006097682,-0.07461834,-0.05531384,-0.028847633,-0.012916372,-0.34949052,-0.18863791,-0.089389615,0.030014038
-0.028245023009373885,0.0030643185340358454,0.00985911180515881,0.033307810152563545,0.035972434964768624,-0.01851914244482533,0.0,0.0,0.0,0.022120873,0.0068721017,1.0018437,0.99940205,0.02659053,-0.02210572,0.026978146,-0.999617,0.006178019,-0.078846134,-0.02382984,-0.008778572,-0.0554315,-0.028822545,-0.012895684,-0.34949052,-0.18863791,-0.089389615,0.029586792
-0.0305099540997482,0.002264931090374321,0.0057289433462409285,0.03357427263378405,0.03583920372415837,-0.014788667707738212,0.0,0.0,0.0,0.022120873,0.0068721017,1.0018437,0.99940205,0.02659053,-0.02210572,0.026978146,-0.999617,0.006178019,-0.12074466,-0.06333417,0.029528618,-0.055758066,-0.028995102,-0.012683562,-0.35303348,-0.18863791,-0.089389615,0.029342651
-0.027712098046932865,0.006794793271122962,0.007860643196004996,0.03170903526524049,0.035972434964768624,-0.016120980113840753,0.0,0.0,0.0,0.022120873,0.0068721017,1.0018437,0.99940205,0.02659053,-0.02210572,0.026978146,-0.999617,0.006178019,-0.19257072,-0.0010849275,0.023543358,-0.05644213,-0.028855551,-0.012502428,-0.3587898,-0.18863791,-0.089389615,0.029891968
