GyroX,GyroY,GyroZ,NoiseX,NoiseY,NoiseZ,ExpGravityX,ExpGravityY,ExpGravityZ,ExpOxX,ExpOxY,ExpOxZ,ExpOyX,ExpOyY,ExpOyZ,AccX,AccY,AccZ,ExpSpeedX,ExpSpeedY,ExpSpeedZ,dT
-0.07980551312554225,0.0075941807147844875,-0.0006661562030512709,-0.0806282,0.009056392,-0.0030043644,0.034768187,0.009836333,0.99934703,0.99939543,-0.00034219836,-0.034766506,2.910383e-11,-0.9999516,0.009842283,0.4477157104492187,0.03591302490234375,11.312602844238281,0.0020221535,0.0,0.05109452,0.0045166016
-0.08113782553164478,0.011324655451871604,-0.002797856052815337,-0.0806282,0.009056392,-0.0030043644,0.034768187,0.009836333,0.99934703,0.99939543,-0.00034219836,-0.034766506,2.910383e-11,-0.9999516,0.009842283,0.4381389038085937,0.08140285644531249,11.159373937988281,0.015018705,0.0,0.382116,0.029663086
-0.08233690669713707,0.010258805526989571,-0.00479632466196915,-0.0806282,0.009056392,-0.0030043644,0.034768187,0.009836333,0.99934703,0.99939543,-0.00034219836,-0.034766506,2.910383e-11,-0.9999516,0.009842283,0.41898529052734373,0.05027823486328125,11.226411584472656,0.027447103,0.0,0.715126,0.029663086
-0.08060490056920376,0.010924961730040842,-0.0033307810152563544,-0.0806282,0.009056392,-0.0030043644,0.034768187,0.009836333,0.99934703,0.99939543,-0.00034219836,-0.034766506,2.910383e-11,-0.9999516,0.009842283,0.3591302490234375,0.14604630126953125,11.168950744628905,0.038100015,0.0,1.0464315,0.029663086
-0.07953905064432175,0.012390505376753637,-0.0009326186842717792,-0.0806282,0.009056392,-0.0030043644,0.034768187,0.009836333,0.99934703,0.99939543,-0.00034219836,-0.034766506,2.910383e-11,-0.9999516,0.009842283,0.4070142822265625,0.10773907470703124,11.264718811035156,0.050173316,0.0,1.3805779,0.029663086
-0.0816707504940858,0.007860643196004996,-0.0006661562030512709,-0.0806282,0.009056392,-0.0030043644,0.034768187,0.009836333,0.99934703,0.99939543,-0.00034219836,-0.034766506,2.910383e-11,-0.9999516,0.009842283,0.39743747558593745,0.031124621582031248,11.233594189453123,0.061962537,0.0,1.713801,0.029663086
-0.07953905064432175,0.008526799399056265,-0.005595712105630674,-0.0806282,0.009056392,-0.0030043644,0.034768187,0.009836333,0.99934703,0.99939543,-0.00034219836,-0.034766506,2.910383e-11,-0.9999516,0.009842283,0.36152445068359373,0.11252747802734374,11.17852755126953,0.07268647,0.0,2.0453906,0.029663086
-0.08113782553164478,0.01212404289553313,-0.0035972434964768626,-0.0806282,0.009056392,-0.0030043644,0.034768187,0.009836333,0.99934703,0.99939543,-0.00034219836,-0.034766506,2.910383e-11,-0.9999516,0.009842283,0.373495458984375,0.13168109130859373,11.171344946289063,0.0837655,0.0,2.3767672,0.029663086
-0.08153751925347555,0.011058192970651094,-0.0030643185340358454,-0.0806282,0.009056392,-0.0030043644,0.034768187,0.009836333,0.99934703,0.99939543,-0.00034219836,-0.034766506,2.910383e-11,-0.9999516,0.009842283,0.3758896606445312,0.08379705810546874,11.21683477783203,0.09491555,0.0,2.7094932,0.029663086
-0.08033843808798326,0.009326186842717792,-0.002398162330984575,-0.0806282,0.009056392,-0.0030043644,0.034768187,0.009836333,0.99934703,0.99939543,-0.00034219836,-0.034766506,2.910383e-11,-0.9999516,0.009842283,0.37828386230468747,0.06943184814453125,11.173739147949219,0.10613661,0.0,3.0409408,0.029663086
-0.08233690669713707,0.008127105677225504,-0.0037304747370871167,-0.0806282,0.009056392,-0.0030043644,0.034768187,0.009836333,0.99934703,0.99939543,-0.00034219836,-0.034766506,2.910383e-11,-0.9999516,0.009842283,0.41419688720703124,0.06943184814453125,11.252747802734374,0.11842297,0.0,3.374732,0.029663086
-0.08300306290018834,0.008393568158446012,-0.004396630940138387,-0.0806282,0.009056392,-0.0030043644,0.034768187,0.009836333,0.99934703,0.99939543,-0.00034219836,-0.034766506,2.910383e-11,-0.9999516,0.009842283,0.4165910888671875,0.12449848632812499,11.202469567871093,0.13078035,0.0,3.7070317,0.029663086
-0.07980551312554225,0.00985911180515881,-0.002531393571594829,-0.0806282,0.009056392,-0.0030043644,0.034768187,0.009836333,0.99934703,0.99939543,-0.00034219836,-0.034766506,2.910383e-11,-0.9999516,0.009842283,0.4572925170898437,0.1292868896484375,11.207257971191405,0.14428924,0.0,4.0381055,0.029541016
-0.08033843808798326,0.008526799399056265,-0.0014655436467127959,-0.0806282,0.009056392,-0.0030043644,0.034768187,0.009836333,0.99934703,0.99939543,-0.00034219836,-0.034766506,2.910383e-11,-0.9999516,0.009842283,0.373495458984375,0.15562310791015624,11.207257971191405,0.15536827,0.0,4.3705473,0.029663086
-0.07953905064432175,0.008526799399056265,-0.005595712105630674,-0.0806282,0.009056392,-0.0030043644,0.034768187,0.009836333,0.99934703,0.99939543,-0.00034219836,-0.034766506,2.910383e-11,-0.9999516,0.009842283,0.3950432739257812,0.08140285644531249,11.243170996093749,0.16708647,0.0,4.7040544,0.029663086
-0.08113782553164478,0.005062787143189658,-0.002797856052815337,-0.0806282,0.009056392,-0.0030043644,0.034768187,0.009836333,0.99934703,0.99939543,-0.00034219836,-0.034766506,2.910383e-11,-0.9999516,0.009842283,0.411802685546875,0.19153613281249998,11.322179650878905,0.17940234,0.0,5.0426693,0.029907227
-0.08033843808798326,0.010125574286379316,-0.002264931090374321,-0.0806282,0.009056392,-0.0030043644,0.034768187,0.009836333,0.99934703,0.99939543,-0.00034219836,-0.034766506,2.910383e-11,-0.9999516,0.009842283,0.41898529052734373,0.12689268798828124,11.288660827636718,0.19183074,0.0,5.377526,0.029663086
-0.07873966320066021,0.0075941807147844875,0.0009326186842717792,-0.0806282,0.009056392,-0.0030043644,0.034768187,0.009836333,0.99934703,0.99939543,-0.00034219836,-0.034766506,2.910383e-11,-0.9999516,0.009842283,0.354341845703125,0.08379705810546874,11.197681164550781,0.20234162,0.0,5.7096834,0.029663086
-0.08073813180981403,0.006794793271122962,-0.0003996937218307625,-0.0806282,0.009056392,-0.0030043644,0.034768187,0.009836333,0.99934703,0.99939543,-0.00034219836,-0.034766506,2.910383e-11,-0.9999516,0.009842283,0.39983167724609375,0.11013327636718749,11.166556542968749,0.21420185,0.0,6.040918,0.029663086
-0.07913935692249098,0.008793261880276773,-0.0031975497746461,-0.0806282,0.009056392,-0.0030043644,0.034768187,0.009836333,0.99934703,0.99939543,-0.00034219836,-0.034766506,2.910383e-11,-0.9999516,0.009842283,0.3902548706054687,0.0909796630859375,11.214440576171874,0.22577801,0.0,6.373573,0.029663086
-0.08113782553164478,0.009326186842717792,-0.0035972434964768626,-0.0806282,0.009056392,-0.0030043644,0.034768187,0.009836333,0.99934703,0.99939543,-0.00034219836,-0.034766506,2.910383e-11,-0.9999516,0.009842283,0.4285620971679687,0.1388636962890625,11.17852755126953,0.23849049,0.0,6.7051625,0.029663086
-0.08127105677225505,0.012257274136143382,-0.0013323124061025418,-0.0806282,0.009056392,-0.0030043644,0.034768187,0.009836333,0.99934703,0.99939543,-0.00034219836,-0.034766506,2.910383e-11,-0.9999516,0.009842283,0.3687070556640625,0.12689268798828124,11.176133349609374,0.24942748,0.0,7.036681,0.029663086
-0.07833996947882944,0.012656967857974145,-0.0031975497746461,-0.0806282,0.009056392,-0.0030043644,0.034768187,0.009836333,0.99934703,0.99939543,-0.00034219836,-0.034766506,2.910383e-11,-0.9999516,0.009842283,0.40940848388671874,0.0718260498046875,11.259930407714844,0.2615718,0.0,7.3706856,0.029663086
-0.08033843808798326,0.0095926493239383,0.00013323124061025415,-0.0806282,0.009056392,-0.0030043644,0.034768187,0.009836333,0.99934703,0.99939543,-0.00034219836,-0.034766506,2.910383e-11,-0.9999516,0.009842283,0.373495458984375,0.105344873046875,11.202469567871093,0.27260524,0.0,7.7016177,0.029541016
-0.080205206847373,0.007860643196004996,-0.0006661562030512709,-0.0806282,0.009056392,-0.0030043644,0.034768187,0.009836333,0.99934703,0.99939543,-0.00034219836,-0.034766506,2.910383e-11,-0.9999516,0.009842283,0.36391865234375,0.16041151123046873,11.149797131347656,0.28335577,0.0,8.030994,0.029541016
-0.07913935692249098,0.012257274136143382,-0.0006661562030512709,-0.0806282,0.009056392,-0.0030043644,0.034768187,0.009836333,0.99934703,0.99939543,-0.00034219836,-0.034766506,2.910383e-11,-0.9999516,0.009842283,0.3854664672851562,0.143652099609375,11.176133349609374,0.29474285,0.0,8.361149,0.029541016
-0.08113782553164478,0.012656967857974145,-0.0030643185340358454,-0.0806282,0.009056392,-0.0030043644,0.034768187,0.009836333,0.99934703,0.99939543,-0.00034219836,-0.034766506,2.910383e-11,-0.9999516,0.009842283,0.37828386230468747,0.12689268798828124,11.212046374511718,0.30596393,0.0,8.693732,0.029663086
-0.07953905064432175,0.0057289433462409285,-0.0063950995492922,-0.0806282,0.009056392,-0.0030043644,0.034768187,0.009836333,0.99934703,0.99939543,-0.00034219836,-0.034766506,2.910383e-11,-0.9999516,0.009842283,0.3687070556640625,0.08379705810546874,11.228805786132812,0.3169009,0.0,9.0268135,0.029663086
-0.08060490056920376,0.004263399699528133,-0.004263399699528133,-0.0806282,0.009056392,-0.0030043644,0.034768187,0.009836333,0.99934703,0.99939543,-0.00034219836,-0.034766506,2.910383e-11,-0.9999516,0.009842283,0.36631285400390623,0.1388636962890625,11.295843432617186,0.32772216,0.0,9.360504,0.029541016
-0.07794027575699868,0.0058621745868511835,-0.002398162330984575,-0.0806282,0.009056392,-0.0030043644,0.034768187,0.009836333,0.99934703,0.99939543,-0.00034219836,-0.034766506,2.910383e-11,-0.9999516,0.009842283,0.35673604736328124,0.1580173095703125,11.238382592773437,0.33830404,0.0,9.69387,0.029663086
-0.07980551312554225,0.008127105677225504,-0.004663093421358896,-0.0806282,0.009056392,-0.0030043644,0.034768187,0.009836333,0.99934703,0.99939543,-0.00034219836,-0.034766506,2.910383e-11,-0.9999516,0.009842283,0.3806780639648437,0.06464344482421874,11.298237634277344,0.34959614,0.0,10.02901,0.029663086
-0.08247013793774732,0.009059724361497283,-0.005995405827461438,-0.0806282,0.009056392,-0.0030043644,0.034768187,0.009836333,0.99934703,0.99939543,-0.00034219836,-0.034766506,2.910383e-11,-0.9999516,0.009842283,0.3854664672851562,0.13646949462890623,11.281478222656249,0.3617361,0.0,10.384311,0.03149414
-0.08207044421591657,0.009459418083328047,-0.0018652373685435584,-0.0806282,0.009056392,-0.0030043644,0.034768187,0.009836333,0.99934703,0.99939543,-0.00034219836,-0.034766506,2.910383e-11,-0.9999516,0.009842283,0.3591302490234375,0.11013327636718749,11.214440576171874,0.37243283,0.0,10.718334,0.029785156
-0.08326952538140886,0.010658499248820334,0.0,-0.0806282,0.009056392,-0.0030043644,0.034768187,0.009836333,0.99934703,0.99939543,-0.00034219836,-0.034766506,2.910383e-11,-0.9999516,0.009842283,0.373495458984375,0.12449848632812499,11.149797131347656,0.38355744,0.0,11.050432,0.029785156
-0.07887289444127048,0.0073277182335639785,-0.0014655436467127959,-0.0806282,0.009056392,-0.0030043644,0.034768187,0.009836333,0.99934703,0.99939543,-0.00034219836,-0.034766506,2.910383e-11,-0.9999516,0.009842283,0.39743747558593745,0.16280571289062498,11.094730493164063,0.39534667,0.0,11.379536,0.029663086
-0.07873966320066021,0.009992343045769061,-0.0018652373685435584,-0.0806282,0.009056392,-0.0030043644,0.034768187,0.009836333,0.99934703,0.99939543,-0.00034219836,-0.034766506,2.910383e-11,-0.9999516,0.009842283,0.34237083740234375,0.11013327636718749,11.281478222656249,0.40550244,0.0,11.714179,0.029663086
-0.07927258816310122,0.010125574286379316,-0.002398162330984575,-0.0806282,0.009056392,-0.0030043644,0.034768187,0.009836333,0.99934703,0.99939543,-0.00034219836,-0.034766506,2.910383e-11,-0.9999516,0.009842283,0.39983167724609375,0.0430956298828125,11.212046374511718,0.4173627,0.0,12.046762,0.029663086
-0.08073813180981403,0.00866003063966652,-0.000799387443661525,-0.0806282,0.009056392,-0.0030043644,0.034768187,0.009836333,0.99934703,0.99939543,-0.00034219836,-0.034766506,2.910383e-11,-0.9999516,0.009842283,0.41419688720703124,0.16519991455078123,11.159373937988281,0.42964906,0.0,12.377784,0.029663086
-0.08100459429103453,0.007061255752343471,-0.0039969372183076245,-0.0806282,0.009056392,-0.0030043644,0.034768187,0.009836333,0.99934703,0.99939543,-0.00034219836,-0.034766506,2.910383e-11,-0.9999516,0.009842283,0.32082302246093747,0.04548983154296875,11.276689819335937,0.43916565,0.0,12.712285,0.029663086
-0.08366921910323963,0.008260336917835759,-0.002398162330984575,-0.0806282,0.009056392,-0.0030043644,0.034768187,0.009836333,0.99934703,0.99939543,-0.00034219836,-0.034766506,2.910383e-11,-0.9999516,0.009842283,0.4165910888671875,0.13407529296874998,11.348515869140625,0.45152304,0.0,13.048917,0.029663086
-0.08113782553164478,0.01185758041431262,-0.0030643185340358454,-0.0806282,0.009056392,-0.0030043644,0.034768187,0.009836333,0.99934703,0.99939543,-0.00034219836,-0.034766506,2.910383e-11,-0.9999516,0.009842283,0.36631285400390623,0.10773907470703124,11.202469567871093,0.462389,0.0,13.381217,0.029663086
-0.080205206847373,0.00866003063966652,-0.002531393571594829,-0.0806282,0.009056392,-0.0030043644,0.034768187,0.009836333,0.99934703,0.99939543,-0.00034219836,-0.034766506,2.910383e-11,-0.9999516,0.009842283,0.3902548706054687,0.11013327636718749,11.238382592773437,0.4739175,0.0,13.71321,0.029541016
-0.07940581940371148,0.010125574286379316,-0.006128637068071691,-0.0806282,0.009056392,-0.0030043644,0.034768187,0.009836333,0.99934703,0.99939543,-0.00034219836,-0.034766506,2.910383e-11,-0.9999516,0.009842283,0.41898529052734373,0.06464344482421874,11.17852755126953,0.48634592,0.0,14.0448,0.029663086
-0.07940581940371148,0.00866003063966652,-0.0033307810152563544,-0.0806282,0.009056392,-0.0030043644,0.034768187,0.009836333,0.99934703,0.99939543,-0.00034219836,-0.034766506,2.910383e-11,-0.9999516,0.009842283,0.36391865234375,0.09576806640624999,11.262324609375,0.49714085,0.0,14.378875,0.029663086
-0.08007197560676275,0.008526799399056265,-0.0030643185340358454,-0.0806282,0.009056392,-0.0030043644,0.034768187,0.009836333,0.99934703,0.99939543,-0.00034219836,-0.034766506,2.910383e-11,-0.9999516,0.009842283,0.3495534423828125,0.10773907470703124,11.245565197753905,0.5075097,0.0,14.712453,0.029663086
-0.08047166932859352,0.0095926493239383,-0.0031975497746461,-0.0806282,0.009056392,-0.0030043644,0.034768187,0.009836333,0.99934703,0.99939543,-0.00034219836,-0.034766506,2.910383e-11,-0.9999516,0.009842283,0.40462008056640625,0.1149216796875,11.202469567871093,0.519512,0.0,15.044753,0.029663086
-0.08127105677225505,0.009192955602107537,-0.0006661562030512709,-0.0806282,0.009056392,-0.0030043644,0.034768187,0.009836333,0.99934703,0.99939543,-0.00034219836,-0.034766506,2.910383e-11,-0.9999516,0.009842283,0.411802685546875,0.12449848632812499,11.264718811035156,0.5317273,0.0,15.3789,0.029663086
-0.08193721297530632,0.007727411955394742,-0.0006661562030512709,-0.0806282,0.009056392,-0.0030043644,0.034768187,0.009836333,0.99934703,0.99939543,-0.00034219836,-0.034766506,2.910383e-11,-0.9999516,0.009842283,0.40462008056640625,0.1292868896484375,11.212046374511718,0.5437296,0.0,15.711483,0.029663086
-0.08260336917835759,0.010125574286379316,-0.002398162330984575,-0.0806282,0.009056392,-0.0030043644,0.034768187,0.009836333,0.99934703,0.99939543,-0.00034219836,-0.034766506,2.910383e-11,-0.9999516,0.009842283,0.40940848388671874,0.17477672119140625,11.202469567871093,0.55587393,0.0,16.043783,0.029663086
-0.07953905064432175,0.011990811654922875,-0.000799387443661525,-0.0806282,0.009056392,-0.0030043644,0.034768187,0.009836333,0.99934703,0.99939543,-0.00034219836,-0.034766506,2.910383e-11,-0.9999516,0.009842283,0.3806780639648437,0.13646949462890623,11.137826123046874,0.56711954,0.0,16.372807,0.029541016
-0.08060490056920376,0.007061255752343471,-0.0019984686091538122,-0.0806282,0.009056392,-0.0030043644,0.034768187,0.009836333,0.99934703,0.99939543,-0.00034219836,-0.034766506,2.910383e-11,-0.9999516,0.009842283,0.3280056274414062,0.1484405029296875,11.204863769531249,0.57680917,0.0,16.70381,0.029541016
-0.08233690669713707,0.010791730489430587,-0.0029310872934255917,-0.0806282,0.009056392,-0.0030043644,0.034768187,0.009836333,0.99934703,0.99939543,-0.00034219836,-0.034766506,2.910383e-11,-0.9999516,0.009842283,0.38307226562499996,0.16280571289062498,11.259930407714844,0.5881255,0.0,17.03644,0.029541016
-0.07967228188493199,0.00985911180515881,-0.005062787143189658,-0.0806282,0.009056392,-0.0030043644,0.034768187,0.009836333,0.99934703,0.99939543,-0.00034219836,-0.034766506,2.910383e-11,-0.9999516,0.009842283,0.34715924072265625,0.06464344482421874,11.159373937988281,0.59842336,0.0,17.367462,0.029663086
-0.08073813180981403,0.007993874436615249,-0.0026646248122050836,-0.0806282,0.009056392,-0.0030043644,0.034768187,0.009836333,0.99934703,0.99939543,-0.00034219836,-0.034766506,2.910383e-11,-0.9999516,0.009842283,0.4165910888671875,0.076614453125,11.262324609375,0.6107299,0.0,17.700163,0.029541016
-0.08233690669713707,0.008393568158446012,-0.004663093421358896,-0.0806282,0.009056392,-0.0030043644,0.034768187,0.009836333,0.99934703,0.99939543,-0.00034219836,-0.034766506,2.910383e-11,-0.9999516,0.009842283,0.35194764404296874,0.11731588134765625,11.176133349609374,0.6211268,0.0,18.030317,0.029541016
-0.08180398173469605,0.009326186842717792,-0.0010658499248820332,-0.0806282,0.009056392,-0.0030043644,0.034768187,0.009836333,0.99934703,0.99939543,-0.00034219836,-0.034766506,2.910383e-11,-0.9999516,0.009842283,0.3232172241210937,0.11731588134765625,11.188104357910156,0.63067496,0.0,18.360825,0.029541016
-0.07767381327577817,0.009992343045769061,-0.0014655436467127959,-0.0806282,0.009056392,-0.0030043644,0.034768187,0.009836333,0.99934703,0.99939543,-0.00034219836,-0.034766506,2.910383e-11,-0.9999516,0.009842283,0.3902548706054687,0.10295067138671875,11.307814440917968,0.64225113,0.0,18.696249,0.029663086
-0.07860643196004995,0.009192955602107537,-0.0010658499248820332,-0.0806282,0.009056392,-0.0030043644,0.034768187,0.009836333,0.99934703,0.99939543,-0.00034219836,-0.034766506,2.910383e-11,-0.9999516,0.009842283,0.411802685546875,0.08140285644531249,11.204863769531249,0.65446645,0.0,19.02862,0.029663086
-0.080205206847373,0.005595712105630674,-0.0021316998497640663,-0.0806282,0.009056392,-0.0030043644,0.034768187,0.009836333,0.99934703,0.99939543,-0.00034219836,-0.034766506,2.910383e-11,-0.9999516,0.009842283,0.3711012573242187,0.1388636962890625,11.149797131347656,0.6654745,0.0,19.359358,0.029663086
-0.0816707504940858,0.008926493120887028,0.0003996937218307625,-0.0806282,0.009056392,-0.0030043644,0.034768187,0.009836333,0.99934703,0.99939543,-0.00034219836,-0.034766506,2.910383e-11,-0.9999516,0.009842283,0.36152445068359373,0.08858546142578125,11.152191333007812,0.6761984,0.0,19.690166,0.029663086
-0.07993874436615249,0.008793261880276773,-0.0031975497746461,-0.0806282,0.009056392,-0.0030043644,0.034768187,0.009836333,0.99934703,0.99939543,-0.00034219836,-0.034766506,2.910383e-11,-0.9999516,0.009842283,0.4285620971679687,0.15562310791015624,11.25514200439453,0.6889109,0.0,20.024029,0.029663086
-0.08100459429103453,0.011724349173702367,-0.0013323124061025418,-0.0806282,0.009056392,-0.0030043644,0.034768187,0.009836333,0.99934703,0.99939543,-0.00034219836,-0.034766506,2.910383e-11,-0.9999516,0.009842283,0.3854664672851562,0.11013327636718749,11.168950744628905,0.70034504,0.0,20.355335,0.029663086
-0.08060490056920376,0.009192955602107537,-0.002531393571594829,-0.0806282,0.009056392,-0.0030043644,0.034768187,0.009836333,0.99934703,0.99939543,-0.00034219836,-0.034766506,2.910383e-11,-0.9999516,0.009842283,0.37828386230468747,0.1197100830078125,11.192892761230468,0.7116123,0.0,20.688717,0.029785156
-0.08100459429103453,0.011191424211261349,-0.0018652373685435584,-0.0806282,0.009056392,-0.0030043644,0.034768187,0.009836333,0.99934703,0.99939543,-0.00034219836,-0.034766506,2.910383e-11,-0.9999516,0.009842283,0.44053310546874996,0.13407529296874998,11.149797131347656,0.7246798,0.0,21.019455,0.029663086
-0.0816707504940858,0.01212404289553313,-0.0019984686091538122,-0.0806282,0.009056392,-0.0030043644,0.034768187,0.009836333,0.99934703,0.99939543,-0.00034219836,-0.034766506,2.910383e-11,-0.9999516,0.009842283,0.3854664672851562,0.11731588134765625,11.329362255859374,0.7360669,0.0,21.354136,0.029541016
-0.07913935692249098,0.008260336917835759,-0.005062787143189658,-0.0806282,0.009056392,-0.0030043644,0.034768187,0.009836333,0.99934703,0.99939543,-0.00034219836,-0.034766506,2.910383e-11,-0.9999516,0.009842283,0.3950432739257812,0.055066638183593745,11.267113012695312,0.7477851,0.0,21.688353,0.029663086
-0.08153751925347555,0.009059724361497283,-0.004130168458917879,-0.0806282,0.009056392,-0.0030043644,0.034768187,0.009836333,0.99934703,0.99939543,-0.00034219836,-0.034766506,2.910383e-11,-0.9999516,0.009842283,0.40940848388671874,0.11013327636718749,11.197681164550781,0.7599294,0.0,22.02051,0.029663086
-0.07967228188493199,0.009992343045769061,-0.0035972434964768626,-0.0806282,0.009056392,-0.0030043644,0.034768187,0.009836333,0.99934703,0.99939543,-0.00034219836,-0.034766506,2.910383e-11,-0.9999516,0.009842283,0.4333505004882812,0.09816226806640624,11.252747802734374,0.772731,0.0,22.352928,0.029541016
-0.07847320071943971,0.011591117933092112,-0.0037304747370871167,-0.0806282,0.009056392,-0.0030043644,0.034768187,0.009836333,0.99934703,0.99939543,-0.00034219836,-0.034766506,2.910383e-11,-0.9999516,0.009842283,0.4070142822265625,0.13646949462890623,11.247959399414063,0.7848043,0.0,22.686577,0.029663086
-0.08060490056920376,0.008793261880276773,-0.004263399699528133,-0.0806282,0.009056392,-0.0030043644,0.034768187,0.009836333,0.99934703,0.99939543,-0.00034219836,-0.034766506,2.910383e-11,-0.9999516,0.009842283,0.3950432739257812,0.19871873779296872,11.259930407714844,0.7965225,0.0,23.02058,0.029663086
-0.08047166932859352,0.008526799399056265,-0.0026646248122050836,-0.0806282,0.009056392,-0.0030043644,0.034768187,0.009836333,0.99934703,0.99939543,-0.00034219836,-0.034766506,2.910383e-11,-0.9999516,0.009842283,0.3447650390625,0.10773907470703124,11.219228979492186,0.8067072,0.0,23.352007,0.029541016
-0.08060490056920376,0.008926493120887028,-0.0014655436467127959,-0.0806282,0.009056392,-0.0030043644,0.034768187,0.009836333,0.99934703,0.99939543,-0.00034219836,-0.034766506,2.910383e-11,-0.9999516,0.009842283,0.37828386230468747,0.09576806640624999,11.183315954589844,0.8178821,0.0,23.682373,0.029541016
-0.08060490056920376,0.011591117933092112,-0.002531393571594829,-0.0806282,0.009056392,-0.0030043644,0.034768187,0.009836333,0.99934703,0.99939543,-0.00034219836,-0.034766506,2.910383e-11,-0.9999516,0.009842283,0.3447650390625,0.13646949462890623,11.152191333007812,0.8281089,0.0,24.013182,0.029663086
-0.07980551312554225,0.01052526800821008,-0.0026646248122050836,-0.0806282,0.009056392,-0.0030043644,0.034768187,0.009836333,0.99934703,0.99939543,-0.00034219836,-0.034766506,2.910383e-11,-0.9999516,0.009842283,0.3016694091796875,0.105344873046875,11.209652172851563,0.83705735,0.0,24.345695,0.029663086
-0.0816707504940858,0.008793261880276773,-0.0010658499248820332,-0.0806282,0.009056392,-0.0030043644,0.034768187,0.009836333,0.99934703,0.99939543,-0.00034219836,-0.034766506,2.910383e-11,-0.9999516,0.009842283,0.33758243408203126,0.05027823486328125,11.243170996093749,0.8472771,0.0,24.686066,0.030273438
-0.07940581940371148,0.010392036767599824,-0.0018652373685435584,-0.0806282,0.009056392,-0.0030043644,0.034768187,0.009836333,0.99934703,0.99939543,-0.00034219836,-0.034766506,2.910383e-11,-0.9999516,0.009842283,0.4333505004882812,0.0718260498046875,11.238382592773437,0.8603961,0.0,25.02629,0.030273438
-0.08233690669713707,0.009725880564548555,-0.0021316998497640663,-0.0806282,0.009056392,-0.0030043644,0.034768187,0.009836333,0.99934703,0.99939543,-0.00034219836,-0.034766506,2.910383e-11,-0.9999516,0.009842283,0.37828386230468747,0.11252747802734374,11.221623181152344,0.87203276,0.0,25.371487,0.030761719
-0.08100459429103453,0.006261868308681946,-0.00159877488732305,-0.0806282,0.009056392,-0.0030043644,0.034768187,0.009836333,0.99934703,0.99939543,-0.00034219836,-0.034766506,2.910383e-11,-0.9999516,0.009842283,0.3711012573242187,0.11252747802734374,11.219228979492186,0.8834032,0.0,25.71524,0.030639648
-0.08180398173469605,0.006928024511733216,-0.0030643185340358454,-0.0806282,0.009056392,-0.0030043644,0.034768187,0.009836333,0.99934703,0.99939543,-0.00034219836,-0.034766506,2.910383e-11,-0.9999516,0.009842283,0.4070142822265625,0.16041151123046873,11.171344946289063,0.8961224,0.0,26.064344,0.03125
-0.08433537530629089,0.010258805526989571,0.000799387443661525,-0.0806282,0.009056392,-0.0030043644,0.034768187,0.009836333,0.99934703,0.99939543,-0.00034219836,-0.034766506,2.910383e-11,-0.9999516,0.009842283,0.3806780639648437,0.105344873046875,11.202469567871093,0.90773976,0.0,26.406218,0.030517578
-0.0814042880128653,0.010125574286379316,-0.004263399699528133,-0.0806282,0.009056392,-0.0030043644,0.034768187,0.009836333,0.99934703,0.99939543,-0.00034219836,-0.034766506,2.910383e-11,-0.9999516,0.009842283,0.469263525390625,0.16041151123046873,11.214440576171874,0.92200327,0.0,26.747086,0.030395508
-0.07900612568188072,0.009192955602107537,-0.000799387443661525,-0.0806282,0.009056392,-0.0030043644,0.034768187,0.009836333,0.99934703,0.99939543,-0.00034219836,-0.034766506,2.910383e-11,-0.9999516,0.009842283,0.41898529052734373,0.15562310791015624,11.259930407714844,0.9347385,0.0,27.089336,0.030395508
-0.07993874436615249,0.0095926493239383,-0.002797856052815337,-0.0806282,0.009056392,-0.0030043644,0.034768187,0.009836333,0.99934703,0.99939543,-0.00034219836,-0.034766506,2.910383e-11,-0.9999516,0.009842283,0.34237083740234375,0.09337386474609374,11.17852755126953,0.9451451,0.0,27.429113,0.030395508
-0.07873966320066021,0.008127105677225504,-0.005329249624410167,-0.0806282,0.009056392,-0.0030043644,0.034768187,0.009836333,0.99934703,0.99939543,-0.00034219836,-0.034766506,2.910383e-11,-0.9999516,0.009842283,0.36631285400390623,0.11731588134765625,11.166556542968749,0.95627934,0.0,27.768526,0.030395508
-0.08193721297530632,0.009059724361497283,-0.0006661562030512709,-0.0806282,0.009056392,-0.0030043644,0.034768187,0.009836333,0.99934703,0.99939543,-0.00034219836,-0.034766506,2.910383e-11,-0.9999516,0.009842283,0.42377369384765623,0.05027823486328125,11.291055029296874,0.9692119,0.0,28.113102,0.030517578
-0.07967228188493199,0.0074609494741742334,0.0005329249624410166,-0.0806282,0.009056392,-0.0030043644,0.034768187,0.009836333,0.99934703,0.99939543,-0.00034219836,-0.034766506,2.910383e-11,-0.9999516,0.009842283,0.39743747558593745,0.04548983154296875,11.17852755126953,0.9812922,0.0,28.452879,0.030395508
-0.08366921910323963,0.009459418083328047,-0.0039969372183076245,-0.0806282,0.009056392,-0.0030043644,0.034768187,0.009836333,0.99934703,0.99939543,-0.00034219836,-0.034766506,2.910383e-11,-0.9999516,0.009842283,0.3758896606445312,0.1292868896484375,11.190498559570312,0.99271756,0.0,28.79302,0.030395508
-0.08153751925347555,0.011324655451871604,-0.003464012255866608,-0.0806282,0.009056392,-0.0030043644,0.034768187,0.009836333,0.99934703,0.99939543,-0.00034219836,-0.034766506,2.910383e-11,-0.9999516,0.009842283,0.3854664672851562,0.10773907470703124,11.219228979492186,1.004434,0.0,29.134035,0.030395508
-0.08300306290018834,0.009725880564548555,-0.002398162330984575,-0.0806282,0.009056392,-0.0030043644,0.034768187,0.009836333,0.99934703,0.99939543,-0.00034219836,-0.034766506,2.910383e-11,-0.9999516,0.009842283,0.39264907226562495,0.12449848632812499,11.281478222656249,1.0164167,0.0,29.47832,0.030517578
-0.080205206847373,0.01052526800821008,-0.003464012255866608,-0.0806282,0.009056392,-0.0030043644,0.034768187,0.009836333,0.99934703,0.99939543,-0.00034219836,-0.034766506,2.910383e-11,-0.9999516,0.009842283,0.3854664672851562,0.10295067138671875,11.192892761230468,1.0281332,0.0,29.818533,0.030395508
-0.07940581940371148,0.008260336917835759,-0.000799387443661525,-0.0806282,0.009056392,-0.0030043644,0.034768187,0.009836333,0.99934703,0.99939543,-0.00034219836,-0.034766506,2.910383e-11,-0.9999516,0.009842283,0.3016694091796875,0.1149216796875,11.214440576171874,1.0373025,0.0,30.1594,0.030395508
-0.080205206847373,0.012390505376753637,-0.0037304747370871167,-0.0806282,0.009056392,-0.0030043644,0.034768187,0.009836333,0.99934703,0.99939543,-0.00034219836,-0.034766506,2.910383e-11,-0.9999516,0.009842283,0.3902548706054687,0.1580173095703125,11.231199987792968,1.0491645,0.0,30.500778,0.030395508
-0.08127105677225505,0.007727411955394742,-0.0011990811654922875,-0.0806282,0.009056392,-0.0030043644,0.034768187,0.009836333,0.99934703,0.99939543,-0.00034219836,-0.034766506,2.910383e-11,-0.9999516,0.009842283,0.373495458984375,0.10773907470703124,11.200075366210937,1.0605171,0.0,30.84121,0.030395508
-0.08180398173469605,0.009725880564548555,0.0010658499248820332,-0.0806282,0.009056392,-0.0030043644,0.034768187,0.009836333,0.99934703,0.99939543,-0.00034219836,-0.034766506,2.910383e-11,-0.9999516,0.009842283,0.3687070556640625,0.13407529296874998,11.197681164550781,1.071724,0.0,31.181568,0.030395508
-0.08300306290018834,0.013323124061025418,0.28538131738716443,-0.0806282,0.009056392,-0.0030043644,0.034873843,0.0094549125,0.99934703,0.9993317,-0.011288975,-0.034766506,-0.010952888,-0.99989164,0.009842283,0.5698199951171875,0.9744400756835937,11.159373937988281,1.0893918,0.030213352,31.527575,0.03100586
-0.08286983165957809,0.008793261880276773,0.43033690717112094,-0.0806282,0.009056392,-0.0030043644,0.03499056,0.0090133855,0.99934703,0.9991092,-0.023918664,-0.034766506,-0.023589678,-0.99967325,0.009842282,0.3806780639648437,-0.20350714111328125,11.3772462890625,1.1010092,0.024002807,31.87478,0.030517578
-0.08153751925347555,0.006794793271122962,0.3261500770139022,-0.0806282,0.009056392,-0.0030043644,0.035081476,0.008652774,0.99934703,0.9988101,-0.034200568,-0.034766506,-0.03387741,-0.99937755,0.009842283,0.3854664672851562,0.14604630126953125,11.312602844238281,1.1127257,0.024002807,32.21863,0.030395508
-0.08233690669713707,0.013323124061025418,0.5206676883048733,-0.0806282,0.009056392,-0.0030043644,0.035225973,0.008044334,0.99934703,0.99806863,-0.051481538,-0.034766506,-0.051168248,-0.99864155,0.009842283,0.469263525390625,0.5410895751953124,11.295843432617186,1.1270465,0.04051555,32.563354,0.030517578
-0.08127105677225505,0.012390505376753637,0.6776140897437527,-0.0806282,0.009056392,-0.0030043644,0.035385344,0.007311502,0.99934703,0.9967852,-0.07218493,-0.034766506,-0.0718836,-0.9973645,0.009842283,0.3064578125,0.076614453125,11.176133349609374,1.1363988,0.04051555,32.904423,0.030517578
-0.08380245034384987,0.009059724361497283,0.6255206746651433,-0.0806282,0.009056392,-0.0030043644,0.035515025,0.0066530937,0.99934703,0.99527276,-0.09068395,-0.034766506,-0.09039343,-0.9958575,0.009842282,0.3016694091796875,-0.1292868896484375,11.25514200439453,1.145605,0.04051555,33.247902,0.030517578
-0.08646707515605495,0.006528330789902454,0.42567381374976204,-0.0806282,0.009056392,-0.0030043644,0.035591118,0.0062332116,0.99934703,0.9941324,-0.102431394,-0.034766506,-0.10214781,-0.9947206,0.009842283,0.37828386230468747,-0.3711012573242187,11.245565197753905,1.1571493,0.029190438,33.59109,0.030517578
-0.08286983165957809,0.012390505376753637,0.2344869834740473,-0.0806282,0.009056392,-0.0030043644,0.03563373,0.005984803,0.99934703,0.9933937,-0.10936322,-0.034766506,-0.10908374,-0.99398386,0.009842283,0.36631285400390623,0.00239420166015625,11.214440576171874,1.1683283,0.029190438,33.93333,0.030517578
-0.07980551312554225,0.009459418083328047,0.3023016849446667,-0.0806282,0.009056392,-0.0030043644,0.03569308,0.0056200298,0.99934703,0.9922232,-0.11951789,-0.034766506,-0.119244464,-0.99281615,0.009842283,0.3687070556640625,0.469263525390625,11.271901416015623,1.1795803,0.043511223,34.27732,0.030517578
-0.0866003063966652,0.013589586542245924,0.5959433392496668,-0.0806282,0.009056392,-0.0030043644,0.035797663,0.0049099987,0.99934703,0.98965365,-0.13920148,-0.034766506,-0.13893989,-0.99025196,0.009842283,0.316034619140625,0.6631938598632812,11.183315954589844,1.1891863,0.06366934,34.617245,0.030395508
-0.08326952538140886,0.010924961730040842,0.8273660041896783,-0.0806282,0.009056392,-0.0030043644,0.03591155,0.003992699,0.99934703,0.98576903,-0.16447096,-0.034766503,-0.16422476,-0.98637384,0.009842282,0.316034619140625,0.24660277099609373,11.286266625976562,1.1987923,0.07116496,34.960297,0.030395508
-0.08047166932859352,0.01505513018895872,0.8437534467847395,-0.0806282,0.009056392,-0.0030043644,0.036001384,0.0030792032,0.99934703,0.9812732,-0.18945792,-0.034766503,-0.18922716,-0.98188406,0.009842282,0.22266075439453123,-0.0383072265625,11.123460913085937,1.2055602,0.07116496,35.2984,0.030395508
-0.07980551312554225,0.010658499248820334,0.7547549780570898,-0.0806282,0.009056392,-0.0030043644,0.036062304,0.0022564086,0.99934703,0.97669166,-0.2118132,-0.034766503,-0.21159641,-0.97730756,0.009842281,0.33758243408203126,-0.08858546142578125,11.149797131347656,1.2158624,0.07116496,35.638664,0.030517578
-0.0860673814342242,0.010392036767599824,0.741165391514844,-0.0806282,0.009056392,-0.0030043644,0.036104538,0.0014295932,0.99934703,0.97158235,-0.23413455,-0.0347665,-0.23393196,-0.9722032,0.009842281,0.3806780639648437,0.16280571289062498,11.154585534667968,1.2274333,0.07116496,35.977715,0.030395508
-0.07913935692249098,0.012257274136143382,0.7719418080958126,-0.0806282,0.009056392,-0.0030043644,0.036128245,0.0005755388,0.99934703,0.9657749,-0.2570412,-0.0347665,-0.25685328,-0.96640027,0.00984228,0.36391865234375,0.15562310791015624,11.21683477783203,1.2384949,0.07116496,36.318657,0.030395508
-0.08286983165957809,0.008793261880276773,0.732238898393957,-0.0806282,0.009056392,-0.0030043644,0.03613219,-0.00021482061,0.99934703,0.9599217,-0.2781038,-0.0347665,-0.2779296,-0.960551,0.00984228,0.29448680419921874,-0.11252747802734374,11.326968054199218,1.247482,0.07116496,36.66433,0.030517578
-0.08913169996826004,0.011324655451871604,0.6026049012801795,-0.0806282,0.009056392,-0.0030043644,0.035780966,-0.0008656715,0.9993593,0.9547427,-0.29543248,-0.03443941,-0.29527295,-0.9553633,0.009744359,0.4572925170898437,-0.06703764648437499,11.094730493164063,1.2614374,0.07116496,37.002914,0.030517578
-0.08113782553164478,0.015854517632620246,0.5740934157895852,-0.0806282,0.009056392,-0.0030043644,0.03576003,-0.0014990428,0.9993593,0.9493624,-0.31229004,-0.03443941,-0.3121415,-0.9499857,0.009744359,0.39983167724609375,0.14125789794921875,11.243170996093749,1.2736393,0.07116496,37.346027,0.030517578
-0.08393568158446013,0.008260336917835759,0.5835528338729132,-0.0806282,0.009056392,-0.0030043644,0.03572765,-0.0021358673,0.9993593,0.94364834,-0.3291533,-0.03443941,-0.3290159,-0.9442742,0.009744359,0.3232172241210937,0.01915361328125,11.154585534667968,1.2835032,0.07116496,37.68644,0.030517578
-0.08473506902812164,0.014788667707738212,0.6279188369961279,-0.0806282,0.009056392,-0.0030043644,0.035678867,-0.0028364388,0.9993593,0.93700856,-0.34760445,-0.034439407,-0.34747937,-0.937637,0.009744358,0.3758896606445312,0.1292868896484375,11.365275280761718,1.2949744,0.07116496,38.03328,0.030517578
-0.08446860654690114,0.012656967857974145,0.6981317007977318,-0.0806282,0.009056392,-0.0030043644,0.035608433,-0.0036147677,0.9993593,0.9291957,-0.36798003,-0.034439407,-0.36786872,-0.9298267,0.009744358,0.36152445068359373,0.181959326171875,11.219228979492186,1.3059632,0.07116496,38.374294,0.030395508
-0.08926493120887029,0.01572128639200999,0.7552879030195309,-0.0806282,0.009056392,-0.0030043644,0.035514724,-0.004442012,0.9993593,0.92038536,-0.38949275,-0.034439404,-0.3893962,-0.92101884,0.009744358,0.23223756103515625,0.076614453125,11.259930407714844,1.3130505,0.07116496,38.71792,0.030517578
-0.08766615632154724,0.015987748873230498,0.751690659523054,-0.0806282,0.009056392,-0.0030043644,0.035403296,-0.0052567744,0.9993593,0.9111941,-0.41053542,-0.034439407,-0.4104534,-0.9118296,0.009744358,0.36152445068359373,-0.01915361328125,11.259930407714844,1.3240833,0.07116496,39.061543,0.030517578
-0.0866003063966652,0.008793261880276773,0.7347702919655518,-0.0806282,0.009056392,-0.0030043644,0.035276853,-0.0060473857,0.9993593,0.9017829,-0.43081492,-0.034439404,-0.43074712,-0.90242004,0.009744357,0.3854664672851562,-0.040701428222656245,11.21683477783203,1.3358468,0.07116496,39.403854,0.030517578
-0.0846018377875114,0.0073277182335639785,0.6882725889925729,-0.0806282,0.009056392,-0.0030043644,0.035143938,-0.0067772386,0.9993593,0.8926601,-0.44941282,-0.034439404,-0.44935825,-0.8932985,0.009744357,0.35194764404296874,-0.1197100830078125,11.29344923095703,1.3465874,0.07116496,39.748505,0.030517578
-0.0814042880128653,0.012523736617363892,0.6175268002285281,-0.0806282,0.009056392,-0.0030043644,0.035010494,-0.00743591,0.9993593,0.88406456,-0.46609432,-0.034439407,-0.4660517,-0.8847039,0.009744357,0.38307226562499996,0.06943184814453125,11.25514200439453,1.3583246,0.07116496,40.093357,0.030639648
-0.08366921910323963,0.0127901990985844,0.6084670758670309,-0.0806282,0.009056392,-0.0030043644,0.034865804,-0.008087224,0.9993593,0.8752228,-0.48249257,-0.034439407,-0.48246187,-0.87586284,0.009744357,0.2561795776367187,0.09337386474609374,11.214440576171874,1.3661426,0.07116496,40.435596,0.030517578
-0.08047166932859352,0.009192955602107537,0.6801454833153475,-0.0806282,0.009056392,-0.0030043644,0.034683306,-0.008837179,0.9993593,0.8646149,-0.50125337,-0.034439404,-0.5012365,-0.86525553,0.009744357,0.33039982910156246,0.4285620971679687,11.25514200439453,1.3762256,0.08424363,40.779076,0.030517578
-0.08100459429103453,0.011191424211261349,0.8149754988129247,-0.0806282,0.009056392,-0.0030043644,0.034440476,-0.010151231,0.9993552,0.851514,-0.5231851,-0.034659833,-0.5231995,-0.85215867,0.009374816,0.3758896606445312,0.3950432739257812,11.307814440917968,1.3876969,0.096299395,41.124165,0.030517578
-0.08326952538140886,0.015454823910789483,0.9268897409255382,-0.0806282,0.009056392,-0.0030043644,0.034126762,-0.011672636,0.99934936,0.836124,-0.5474262,-0.034946807,-0.54747784,-0.83677256,0.008922098,0.13168109130859373,0.21068974609375,11.25514200439453,1.3876969,0.102729134,41.467644,0.030517578
-0.08646707515605495,0.012523736617363892,0.9743200625827887,-0.0806282,0.009056392,-0.0030043644,0.033764422,-0.012682685,0.99934936,0.8194689,-0.57205725,-0.034946803,-0.5721282,-0.82011575,0.008922098,0.20350714111328125,0.09816226806640624,11.204863769531249,1.3939074,0.102729134,41.80959,0.030517578
-0.08753292508093698,0.013989280264076687,0.9392802463022918,-0.0806282,0.009056392,-0.0030043644,0.03338167,-0.013658364,0.99934936,0.8025016,-0.5956256,-0.0349468,-0.5957153,-0.8031461,0.008922097,0.201112939453125,-0.06464344482421874,11.197681164550781,1.4001431,0.102729134,42.156784,0.03100586
-0.08473506902812164,0.015454823910789483,0.9320857593093381,-0.0806282,0.009056392,-0.0030043644,0.03297584,-0.014610992,0.99934936,0.7850729,-0.6184168,-0.0349468,-0.6185249,-0.7857145,0.008922096,0.26815058593749996,0.11013327636718749,11.214440576171874,1.4082937,0.102729134,42.497654,0.030395508
-0.08713323135910622,0.01438897398590745,0.9759188374701118,-0.0806282,0.009056392,-0.0030043644,0.032520346,-0.015598539,0.99934936,0.7660714,-0.6418048,-0.034946796,-0.64193225,-0.7667094,0.008922095,0.23223756103515625,0.00239420166015625,11.204863769531249,1.4154094,0.102729134,42.840965,0.030639648
-0.09219601850229589,0.010392036767599824,0.9931056675088346,-0.0806282,0.009056392,-0.0030043644,0.0320275,-0.01658695,0.99934936,0.7460612,-0.6649598,-0.03494679,-0.6651068,-0.74669504,0.008922095,0.3447650390625,0.062249243164062495,11.14022032470703,1.4259309,0.102729134,43.18094,0.030517578
-0.08620061267483445,0.01345635530163567,1.129534457893735,-0.0806282,0.009056392,-0.0030043644,0.031417374,-0.017715441,0.99934936,0.7219416,-0.691071,-0.034946784,-0.6912404,-0.7225698,0.008922094,0.2825157958984375,0.4955997436523437,11.283872424316405,1.4345526,0.11785364,43.525295,0.030517578
-0.08620061267483445,0.009059724361497283,1.3335114872680338,-0.0806282,0.009056392,-0.0030043644,0.030661928,-0.018993035,0.99934936,0.692898,-0.72018826,-0.034946773,-0.7203834,-0.69351876,0.008922091,0.2154781494140625,0.22026655273437498,11.243170996093749,1.4411021,0.124548756,43.86704,0.030395508
-0.09046401237436258,0.01572128639200999,1.3484333862163824,-0.0806282,0.009056392,-0.0030043644,0.029857798,-0.020233683,0.99934936,0.66280085,-0.7479798,-0.034946762,-0.74820024,-0.6634131,0.008922088,0.19871873779296872,-0.26336218261718747,11.233594189453123,1.4411021,0.11651158,44.20986,0.030517578
-0.08753292508093698,0.015454823910789483,1.2912771839945834,-0.0806282,0.009056392,-0.0030043644,0.02903975,-0.021391207,0.99934936,0.6329002,-0.77344435,-0.034946755,-0.77368855,-0.63350326,0.008922085,0.22744915771484372,-0.22266075439453123,11.305420239257812,1.4480433,0.10971652,44.554874,0.030517578
-0.08326952538140886,0.017719755001163805,1.2983384397469269,-0.0806282,0.009056392,-0.0030043644,0.028159987,-0.022536786,0.99934936,0.60142463,-0.79816484,-0.034946743,-0.7984331,-0.6020175,0.008922083,0.1867477294921875,0.00239420166015625,11.250353601074218,1.4480433,0.10971652,44.89821,0.030517578
-0.08953139369009079,0.012656967857974145,1.3351102621553568,-0.0806282,0.009056392,-0.0030043644,0.02722101,-0.0236624,0.99934936,0.5684964,-0.8219433,-0.034946736,-0.82223535,-0.56907785,0.0089220805,0.18914193115234373,-0.229843359375,11.044452258300781,1.4480433,0.10270226,45.23526,0.030517578
-0.08553445647178318,0.00866003063966652,1.1325987764277705,-0.0806282,0.009056392,-0.0030043644,0.026421906,-0.02455149,0.99934936,0.54094553,-0.8403313,-0.03494673,-0.8406425,-0.54151696,0.008922079,0.1771709228515625,-0.6560112548828124,11.113884106445312,1.4480433,0.082682386,45.57443,0.030517578
-0.09113016857741385,0.011058192970651094,0.7951240439619969,-0.0806282,0.009056392,-0.0030043644,0.025852306,-0.025150571,0.99934936,0.52154505,-0.8525078,-0.03494673,-0.852832,-0.5221092,0.008922079,0.14125789794921875,-0.6081272216796875,11.21683477783203,1.4480433,0.06412382,45.91674,0.030517578
-0.08286983165957809,0.01532159267017923,0.5072113330032376,-0.0806282,0.009056392,-0.0030043644,0.025093809,-0.025554717,0.9993584,0.5079671,-0.86067474,-0.03476322,-0.8610109,-0.5085136,0.008616594,0.2753331909179687,0.18435352783203124,11.202469567871093,1.4564122,0.06412382,46.257244,0.030395508
-0.08220367545652682,0.004663093421358896,0.5176033697708374,-0.0806282,0.009056392,-0.0030043644,0.024688913,-0.025946105,0.9993584,0.49437204,-0.86855507,-0.03476322,-0.86889976,-0.4949132,0.008616594,0.201112939453125,-0.11252747802734374,11.274295617675781,1.4625251,0.06412382,46.599934,0.030395508
-0.08406891282507037,0.009992343045769061,0.48749310939292,-0.0806282,0.009056392,-0.0030043644,0.024286207,-0.02632343,0.9993584,0.48093075,-0.8760692,-0.03476322,-0.8764222,-0.4814665,0.008616594,0.3064578125,0.22505495605468748,11.202469567871093,1.4718775,0.07099195,46.941807,0.030517578
-0.09006431865253181,0.014522205226517705,0.6989310882413933,-0.0806282,0.009056392,-0.0030043644,0.023674887,-0.026874572,0.9993584,0.46067184,-0.8868896,-0.03476322,-0.8872547,-0.46119928,0.008616593,0.26336218261718747,0.6488286499023437,11.231199987792968,1.4798825,0.09071343,47.283184,0.030395508
-0.08993108741192156,0.016520673835671518,1.0258805526989572,-0.0806282,0.009056392,-0.0030043644,0.022757985,-0.027655331,0.9993584,0.43059427,-0.901876,-0.034763217,-0.90225863,-0.43110913,0.008616592,0.19393033447265623,0.5482721801757812,11.259930407714844,1.4798825,0.10771307,47.63231,0.03100586
-0.08540122523117291,0.02398162330984575,1.2547718240673735,-0.0806282,0.009056392,-0.0030043644,0.021667667,-0.028847925,0.99934894,0.39548042,-0.91780466,-0.03506849,-0.9182188,-0.39598283,0.008477828,0.047884033203124995,-0.03591302490234375,11.360486877441405,1.4798825,0.10771307,47.977615,0.030395508
-0.08739969384032674,0.010258805526989571,1.2521071992551687,-0.0806282,0.009056392,-0.0030043644,0.02055268,-0.029652633,0.99934894,0.36022007,-0.93220794,-0.035068482,-0.9326409,-0.36070633,0.008477827,0.26336218261718747,-0.13168109130859373,11.202469567871093,1.4878875,0.10771307,48.31812,0.030395508
-0.08766615632154724,0.011591117933092112,1.2912771839945834,-0.0806282,0.009056392,-0.0030043644,0.019356994,-0.030446656,0.99934894,0.32285663,-0.945798,-0.035068475,-0.94624996,-0.3233253,0.008477825,0.19632453613281248,0.0909796630859375,11.329362255859374,1.4878875,0.10771307,48.663864,0.030517578
-0.08420214406568063,0.012656967857974145,1.310062788920629,-0.0806282,0.009056392,-0.0030043644,0.018122168,-0.031702787,0.999333,0.2850333,-0.957858,-0.035555605,-0.9583463,-0.28548753,0.008322025,0.23223756103515625,-0.06464344482421874,11.226411584472656,1.4949749,0.10771307,49.006466,0.030517578
-0.07913935692249098,0.019984686091538122,1.221863707636641,-0.0806282,0.009056392,-0.0030043644,0.016926674,-0.03270222,0.99932176,0.24928945,-0.96776366,-0.035891686,-0.9682811,-0.24972793,0.008228606,0.1388636962890625,0.05746083984375,11.281478222656249,1.4949749,0.10771307,49.35075,0.030517578
-0.08353598786262936,0.016387442595061263,1.1860245039124826,-0.0806282,0.009056392,-0.0030043644,0.015733493,-0.03329272,0.99932176,0.2141438,-0.9761426,-0.035891682,-0.9766755,-0.21456328,0.008228605,0.12449848632812499,-0.11731588134765625,11.240776794433593,1.4949749,0.10771307,49.69379,0.030517578
-0.0860673814342242,0.017719755001163805,1.1913537535368928,-0.0806282,0.009056392,-0.0030043644,0.01449262,-0.03385133,0.99932176,0.17793007,-0.9833884,-0.035891674,-0.9839365,-0.17832957,0.008228603,0.181959326171875,0.1484405029296875,11.212046374511718,1.4949749,0.10771307,50.035954,0.030517578
-0.08500153150934216,0.014522205226517705,1.3215206756131113,-0.0806282,0.009056392,-0.0030043644,0.013101159,-0.034413792,0.99932176,0.1377096,-0.98982215,-0.035891663,-0.99038607,-0.13808644,0.0082286,0.15322890625,0.24660277099609373,11.264718811035156,1.4949749,0.11520869,50.37835,0.030395508
-0.08726646259971647,0.012523736617363892,1.3654869850144948,-0.0806282,0.009056392,-0.0030043644,0.011648423,-0.03526244,0.99931014,0.09633269,-0.99468994,-0.03622191,-0.995281,-0.096688166,0.008189523,0.0143652099609375,-0.08379705810546874,11.202469567871093,1.4949749,0.11520869,50.720222,0.030517578
-0.09113016857741385,0.015454823910789483,1.300470139596691,-0.0806282,0.009056392,-0.0030043644,0.010230555,-0.03569961,0.99931014,0.05652246,-0.9977441,-0.0362219,-0.99834895,-0.05685404,0.008189521,0.062249243164062495,-0.02633621826171875,11.161768139648437,1.4949749,0.11520869,51.063576,0.030761719
-0.09139663105863435,0.013589586542245924,1.3305803999746082,-0.0806282,0.009056392,-0.0030043644,0.008749139,-0.03609127,0.99931014,0.015314555,-0.99922645,-0.036221888,-0.9998445,-0.015620897,0.008189518,0.12210428466796874,0.10295067138671875,11.259930407714844,1.4949749,0.11520869,51.40995,0.030761719
-0.09539356827694198,0.016520673835671518,1.3463016863666184,-0.0806282,0.009056392,-0.0030043644,0.006902437,-0.036813203,0.9992983,-0.026189782,-0.99898607,-0.036620323,-0.9996332,0.02591864,0.007859425,0.13646949462890623,0.05027823486328125,11.219228979492186,1.4949749,0.11520869,51.755074,0.030761719
-0.08526799399056267,0.00985911180515881,1.3215206756131113,-0.0806282,0.009056392,-0.0030043644,0.005406951,-0.0370624,0.9992983,-0.066597365,-0.99710774,-0.036620308,-0.9977653,0.06635263,0.007859422,0.055066638183593745,0.05746083984375,11.128249316406249,1.4949749,0.11520869,52.09468,0.030517578
-0.08726646259971647,0.01532159267017923,1.3412388992234285,-0.0806282,0.009056392,-0.0030043644,0.00387926,-0.037253305,0.9992983,-0.107518464,-0.9935285,-0.036620293,-0.9941955,0.10730096,0.007859419,0.08140285644531249,-0.055066638183593745,11.257536206054686,1.4949749,0.11520869,52.438232,0.030517578
-0.08366921910323963,0.009326186842717792,1.3368422682832903,-0.0806282,0.009056392,-0.0030043644,0.00200885,-0.03782028,0.9992825,-0.14808038,-0.98827904,-0.037105575,-0.98897326,0.1478996,0.007585577,0.0526724365234375,0.08379705810546874,11.142614526367186,1.4949749,0.11520869,52.77828,0.030517578
-0.08726646259971647,0.014255742745297196,1.2802189910239323,-0.0806282,0.009056392,-0.0030043644,0.00050551456,-0.038283817,0.99926674,-0.1869937,-0.9816447,-0.0375135,-0.982361,0.18683763,0.007654889,0.10295067138671875,-0.2059013427734375,11.133037719726563,1.4949749,0.10879941,53.12483,0.03112793
-0.0831362941407986,0.009992343045769061,1.2173338454558924,-0.0806282,0.009056392,-0.0030043644,-0.0009296228,-0.038275875,0.99926674,-0.22365192,-0.973947,-0.03751349,-0.9746687,0.22352281,0.007654887,0.01915361328125,0.17477672119140625,11.245565197753905,1.4949749,0.10879941,53.466644,0.030395508
-0.08886523748703952,0.008260336917835759,1.2962067398971626,-0.0806282,0.009056392,-0.0030043644,-0.0024518783,-0.038208585,0.99926674,-0.26222798,-0.96427655,-0.037513476,-0.96500283,0.2621277,0.0076548844,0.19153613281249998,0.10295067138671875,11.02529864501953,1.4949749,0.10879941,53.801765,0.030395508
-0.08233690669713707,0.016254211354451008,1.3617565102774079,-0.0806282,0.009056392,-0.0030043644,-0.0040516444,-0.038072206,0.99926674,-0.30242535,-0.9524346,-0.03751346,-0.95316446,0.3023556,0.0076548816,-0.07422025146484375,0.09816226806640624,11.317391247558593,1.4949749,0.10879941,54.147144,0.030517578
-0.08153751925347555,0.0095926493239383,1.4370321612222015,-0.0806282,0.009056392,-0.0030043644,-0.0057382192,-0.038286153,0.9992503,-0.34418362,-0.9381363,-0.037920374,-0.9388848,0.34414318,0.007794027,0.12449848632812499,0.25139117431640623,11.21683477783203,1.4949749,0.11647126,54.489456,0.030517578
-0.0863338439154447,0.018385911204215073,1.455151609945196,-0.0806282,0.009056392,-0.0030043644,-0.007438722,-0.037992414,0.9992503,-0.3856492,-0.92186594,-0.037920356,-0.9226155,0.38564214,0.0077940235,0.08379705810546874,-0.047884033203124995,11.3006318359375,1.4949749,0.11647126,54.834324,0.030517578
-0.07980551312554225,0.013323124061025418,1.4265068932139915,-0.0806282,0.009056392,-0.0030043644,-0.009084895,-0.038036358,0.99923503,-0.42518917,-0.9042944,-0.038287397,-0.9050589,0.42521173,0.007956998,-0.0430956298828125,0.0718260498046875,11.243170996093749,1.4949749,0.11647126,55.177437,0.030517578
-0.09566003075816248,0.01945176112909711,1.4282388993419246,-0.0806282,0.009056392,-0.0030043644,-0.011054808,-0.037908196,0.9992201,-0.46430507,-0.8848293,-0.03870448,-0.88560647,0.46437082,0.007819106,0.09576806640624999,0.11731588134765625,11.097124694824219,1.4949749,0.11647126,55.516094,0.030517578
-0.08886523748703952,0.009459418083328047,1.4102526818595402,-0.0806282,0.009056392,-0.0030043644,-0.013055382,-0.037715398,0.9992032,-0.5018125,-0.864089,-0.039171197,-0.86487794,0.50192404,0.007644785,0.0526724365234375,0.0,11.077971081542968,1.4949749,0.11647126,55.854168,0.030517578
-0.09512710579572148,0.018385911204215073,1.3569601856154387,-0.0806282,0.009056392,-0.0030043644,-0.014596337,-0.03714623,0.9992032,-0.53694516,-0.8427073,-0.03917118,-0.8434909,0.53708905,0.0076447823,0.1149216796875,-0.08379705810546874,11.238382592773437,1.4949749,0.11647126,56.195763,0.030395508
-0.07620826962906538,0.017986217482384312,1.2986049022281474,-0.0806282,0.009056392,-0.0030043644,-0.016058262,-0.036538042,0.9992032,-0.5699486,-0.8207461,-0.039171167,-0.8215234,0.5701235,0.0076447795,0.031124621582031248,0.0909796630859375,11.326968054199218,1.4949749,0.11647126,56.541435,0.030517578
-0.08540122523117291,0.010924961730040842,1.3364425745614597,-0.0806282,0.009056392,-0.0030043644,-0.017530644,-0.035854902,0.9992032,-0.6028493,-0.79689306,-0.039171156,-0.7976626,0.60305566,0.0076447777,-0.09816226806640624,-0.03591302490234375,11.410765112304686,1.4949749,0.11647126,56.88827,0.030395508
-0.09645941820182401,0.026646248122050836,1.3752128655790434,-0.0806282,0.009056392,-0.0030043644,-0.019033778,-0.03508011,0.9992032,-0.6360656,-0.7706402,-0.039171137,-0.7714003,0.6363044,0.007644774,-0.06703764648437499,0.0383072265625,11.480196960449218,1.4949749,0.11647126,57.237217,0.030395508
-0.0863338439154447,0.011990811654922875,1.408520675731607,-0.0806282,0.009056392,-0.0030043644,-0.020514982,-0.034235004,0.9992032,-0.66840553,-0.7427649,-0.03917112,-0.7435142,0.6686766,0.007644771,-0.09816226806640624,-0.12449848632812499,11.3389390625,1.4949749,0.11647126,57.583256,0.030517578
-0.080205206847373,0.008127105677225504,1.35762634181849,-0.0806282,0.009056392,-0.0030043644,-0.021920063,-0.03335284,0.9992032,-0.69869715,-0.71434444,-0.039171103,-0.7150817,0.69899905,0.0076447674,0.0718260498046875,0.11013327636718749,11.171344946289063,1.4949749,0.11647126,57.92418,0.030517578
-0.08220367545652682,0.0095926493239383,1.3862710585496945,-0.0806282,0.009056392,-0.0030043644,-0.023311928,-0.032395314,0.9992032,-0.72830236,-0.6841356,-0.03917109,-0.6848594,0.7286352,0.0076447646,0.11252747802734374,0.05746083984375,11.176133349609374,1.4949749,0.11647126,58.265247,0.030517578
-0.09286217470534716,0.01212404289553313,1.3642879038490028,-0.0806282,0.009056392,-0.0030043644,-0.024646953,-0.03139158,0.9992032,-0.75628895,-0.65306413,-0.03917107,-0.65377337,0.7566518,0.007644762,0.03591302490234375,0.19632453613281248,11.314997045898437,1.4949749,0.11647126,58.610554,0.030517578
-0.08353598786262936,0.008793261880276773,1.3836064337374894,-0.0806282,0.009056392,-0.0030043644,-0.026293185,-0.03069504,0.9991829,-0.7829892,-0.6207689,-0.03967312,-0.6214794,0.78339255,0.007711575,-0.04548983154296875,0.22266075439453123,11.037269653320312,1.4949749,0.123239145,58.946037,0.030395508
-0.08979785617131131,0.012656967857974145,1.2878131717387167,-0.0806282,0.009056392,-0.0030043644,-0.027461713,-0.030000823,0.9991725,-0.8063021,-0.59015805,-0.039879538,-0.5908662,0.80673015,0.007982648,-0.08140285644531249,-0.023942016601562498,11.228805786132812,1.4949749,0.123239145,59.28871,0.030517578
-0.08873200624642928,0.02118376725703041,1.1199418085697965,-0.0806282,0.009056392,-0.0030043644,-0.028454557,-0.029060863,0.9991725,-0.8256823,-0.56272405,-0.039879534,-0.5634174,0.82613385,0.007982646,0.08140285644531249,-0.16041151123046873,11.425130322265625,1.4949749,0.123239145,59.63738,0.030517578
-0.08766615632154724,0.026779479362661087,1.034140889616793,-0.0806282,0.009056392,-0.0030043644,-0.029357595,-0.028148314,0.9991725,-0.84303147,-0.53638375,-0.03987953,-0.53706247,0.84350467,0.007982645,0.11013327636718749,-0.06703764648437499,11.458649145507811,1.4949749,0.123239145,59.98707,0.030517578
-0.08100459429103453,0.011457886692481857,1.0778407365369562,-0.0806282,0.009056392,-0.0030043644,-0.030267106,-0.027167972,0.9991725,-0.8602094,-0.50837916,-0.039879527,-0.50904197,0.86070466,0.007982644,-0.01915361328125,0.0047884033203125,11.362881079101562,1.4949749,0.123239145,60.333836,0.030517578
-0.08406891282507037,0.011324655451871604,1.0437335389407312,-0.0806282,0.009056392,-0.0030043644,-0.031112056,-0.026196122,0.9991725,-0.8758732,-0.48089075,-0.039879527,-0.4815375,0.8763891,0.007982643,0.09576806640624999,-0.06464344482421874,11.149797131347656,1.4949749,0.123239145,60.6741,0.030517578
-0.08233690669713707,0.009192955602107537,1.0292113337142135,-0.0806282,0.009056392,-0.0030043644,-0.031927146,-0.02519632,0.9991725,-0.89068264,-0.452873,-0.039879516,-0.45350313,0.8912189,0.007982642,0.076614453125,0.32561142578124996,11.125855114746093,1.4949749,0.13317601,61.013634,0.030517578
-0.08593415019361393,0.00479632466196915,1.0753093429653613,-0.0806282,0.009056392,-0.0030043644,-0.032741264,-0.02412897,0.9991725,-0.9051428,-0.42323288,-0.039879512,-0.42384496,0.90569955,0.007982641,0.05027823486328125,0.16041151123046873,11.154585534667968,1.4949749,0.13317601,61.354046,0.030517578
-0.08726646259971647,0.01572128639200999,1.063584993791659,-0.0806282,0.009056392,-0.0030043644,-0.033506405,-0.023054695,0.9991725,-0.91838974,-0.39366236,-0.039879512,-0.394256,0.91896594,0.0079826405,0.040701428222656245,-0.00239420166015625,11.221623181152344,1.4949749,0.13317601,61.696503,0.030517578
-0.0860673814342242,0.002797856052815337,1.0979586538691046,-0.0806282,0.009056392,-0.0030043644,-0.034272864,-0.022369523,0.9991621,-0.9311475,-0.36243623,-0.040052976,-0.36302853,0.9317401,0.008407251,0.16998831787109375,0.34237083740234375,10.93671318359375,1.4949749,0.14362434,62.030266,0.030517578
-0.09179632478046512,0.016787136316892024,1.1457886692481858,-0.0806282,0.009056392,-0.0030043644,-0.035043273,-0.021142244,0.9991621,-0.94339424,-0.32924643,-0.040052973,-0.32981738,0.9440074,0.00840725,0.05027823486328125,0.36152445068359373,11.233594189453123,1.4949749,0.15461305,62.371716,0.030395508
-0.09152986229924462,0.01505513018895872,1.2346539067352253,-0.0806282,0.009056392,-0.0030043644,-0.035812635,-0.019811144,0.9991621,-0.95509464,-0.29358122,-0.040052958,-0.2941288,0.9557289,0.008407248,-0.033518823242187495,0.1292868896484375,11.427524523925781,1.4949749,0.15461305,62.720455,0.030517578
-0.08526799399056267,0.022516079663132953,1.1643078116930112,-0.0806282,0.009056392,-0.0030043644,-0.03649588,-0.018522356,0.9991621,-0.9649501,-0.25935927,-0.040052954,-0.25988388,0.9656033,0.008407246,-0.07422025146484375,-0.062249243164062495,11.326968054199218,1.4949749,0.15461305,63.066128,0.030517578
-0.08286983165957809,0.01345635530163567,1.1515176125944269,-0.0806282,0.009056392,-0.0030043644,-0.037123226,-0.017794475,0.9991522,-0.9733317,-0.22585529,-0.040184993,-0.22637898,0.97399837,0.008935089,-0.11013327636718749,-0.13646949462890623,11.434707128906249,1.4949749,0.15461305,63.41509,0.030517578
-0.0877993875621575,0.011191424211261349,0.9522036766414865,-0.0806282,0.009056392,-0.0030043644,-0.037614353,-0.016731348,0.9991522,-0.97936213,-0.1980786,-0.040184993,-0.1985831,0.98004335,0.008935088,-0.0430956298828125,-0.3447650390625,11.106701501464842,1.4949749,0.14388123,63.76082,0.03112793
-0.08473506902812164,0.01732006127933304,0.6969326196322395,-0.0806282,0.009056392,-0.0030043644,-0.037945587,-0.015965903,0.9991522,-0.98317385,-0.1781975,-0.04018499,-0.17868811,0.98386526,0.008935088,-0.028730419921875,-0.3854664672851562,11.350910070800781,1.4949749,0.13211773,64.10722,0.030517578
-0.0834027566220191,0.013323124061025418,0.45978101134598715,-0.0806282,0.009056392,-0.0030043644,-0.03814802,-0.015475992,0.9991522,-0.98538685,-0.1655234,-0.040184993,-0.16600503,0.9860844,0.008935087,0.1292868896484375,-0.23702596435546874,11.264718811035156,1.4949749,0.12491321,64.44962,0.030395508
-0.08646707515605495,0.009725880564548555,0.3983614094246599,-0.0806282,0.009056392,-0.0030043644,-0.038345885,-0.014979011,0.9991522,-0.9874544,-0.15270585,-0.040184993,-0.15317838,0.98815817,0.008935087,0.14604630126953125,0.5746083984375,11.092336291503905,1.4949749,0.14237872,64.78678,0.030395508
-0.0863338439154447,0.010392036767599824,0.5672986225184622,-0.0806282,0.009056392,-0.0030043644,-0.038609613,-0.014285498,0.9991522,-0.99004614,-0.13488486,-0.040184993,-0.13534464,0.9907583,0.008935087,0.16041151123046873,0.4525041137695312,11.14022032470703,1.4949749,0.15618804,65.126755,0.030517578
-0.08326952538140886,0.014255742745297196,0.7759387453141203,-0.0806282,0.009056392,-0.0030043644,-0.038954515,-0.013316294,0.9991522,-0.9931073,-0.1101043,-0.04018499,-0.11054616,0.99383086,0.008935087,0.19632453613281248,0.6655880615234374,11.21683477783203,1.4949749,0.17650017,65.46906,0.030517578
-0.08100459429103453,0.011457886692481857,1.0593215940921308,-0.0806282,0.009056392,-0.0030043644,-0.03938149,-0.01232829,0.99914813,-0.99622214,-0.07697031,-0.0402146,-0.0774006,0.99695724,0.0092501445,0.0718260498046875,0.5722141967773438,11.238382592773437,1.4949749,0.19396277,65.812035,0.030517578
-0.08366921910323963,0.014255742745297196,1.1088836155991453,-0.0806282,0.009056392,-0.0030043644,-0.039772134,-0.011003018,0.99914813,-0.9982404,-0.04357689,-0.040214587,-0.043982334,0.99898946,0.009250143,0.0718260498046875,0.0383072265625,11.221623181152344,1.4949749,0.19396277,66.15449,0.030517578
-0.07940581940371148,0.009192955602107537,0.9659264944243426,-0.0806282,0.009056392,-0.0030043644,-0.040078428,-0.010172373,0.9991447,-0.9990829,-0.014673552,-0.040224038,-0.015070261,0.9998407,0.009574581,-0.06703764648437499,-0.0430956298828125,11.252747802734374,1.4949749,0.19396277,66.497894,0.030517578
-0.08433537530629089,0.011457886692481857,0.8201715171967247,-0.0806282,0.009056392,-0.0030043644,-0.04031382,-0.0091953,0.9991447,-0.9991445,0.00961256,-0.040224038,0.009234383,0.99991155,0.00957458,0.05746083984375,-0.15562310791015624,11.281478222656249,1.4949749,0.19396277,66.8408,0.030395508
-0.09033078113375233,0.010125574286379316,0.7157182245582854,-0.0806282,0.009056392,-0.0030043644,-0.04050694,-0.008664652,0.99914163,-0.9987029,0.03122884,-0.040217023,0.030853484,0.99947476,0.009918025,0.08379705810546874,0.055066638183593745,11.413159313964844,1.4949749,0.19396277,67.187706,0.030395508
-0.0831362941407986,0.013323124061025418,0.6937350698575934,-0.0806282,0.009056392,-0.0030043644,-0.040680494,-0.0078093433,0.99914163,-0.99782336,0.05226222,-0.040217023,0.051903207,0.9986029,0.009918025,0.10773907470703124,0.1867477294921875,11.118672509765624,1.4949749,0.19396277,67.52702,0.030517578
-0.08979785617131131,0.010924961730040842,0.6854747329397577,-0.0806282,0.009056392,-0.0030043644,-0.04083729,-0.006942928,0.99914163,-0.996487,0.073458835,-0.04021702,0.07311648,0.99727416,0.009918025,0.15083470458984374,0.3806780639648437,11.135431921386719,1.4949749,0.20553367,67.86549,0.030395508
-0.08393568158446013,0.009326186842717792,0.7603506901627206,-0.0806282,0.009056392,-0.0030043644,-0.04098839,-0.005986708,0.99914163,-0.99449825,0.09672561,-0.04021702,0.096401736,0.9952931,0.009918024,0.11013327636718749,0.3327940307617187,11.212046374511718,1.4949749,0.21568973,68.20766,0.030517578
-0.0816707504940858,0.011191424211261349,0.6820107206838911,-0.0806282,0.009056392,-0.0030043644,-0.04110061,-0.005160297,0.99914163,-0.9923494,0.11672773,-0.04021702,0.11641992,0.9931506,0.009918024,0.12689268798828124,-0.2059013427734375,11.18571015625,1.4949749,0.20940612,68.54902,0.030517578
-0.080205206847373,0.017852986241774057,0.5775574280454518,-0.0806282,0.009056392,-0.0030043644,-0.041185964,-0.004427776,0.99914163,-0.99011403,0.13437575,-0.04021702,0.13408226,0.9909206,0.009918024,0.1292868896484375,0.3112462158203125,11.207257971191405,1.4949749,0.2189046,68.89104,0.030517578
-0.08193721297530632,0.0127901990985844,0.6117978568822872,-0.0806282,0.009056392,-0.0030043644,-0.04126372,-0.0036324353,0.99914163,-0.9873376,0.15345101,-0.04021702,0.15317312,0.98814964,0.009918024,0.1388636962890625,0.296881005859375,11.233594189453123,1.4949749,0.2281459,69.240715,0.03112793
-0.08979785617131131,0.012390505376753637,0.6820107206838911,-0.0806282,0.009056392,-0.0030043644,-0.04133139,-0.0027577481,0.99914163,-0.98386633,0.17432617,-0.040217016,0.17406556,0.98468417,0.009918024,0.15083470458984374,0.29927520751953124,11.192892761230468,1.4949749,0.23724252,69.580925,0.030395508
-0.08646707515605495,0.015987748873230498,0.7053261877906856,-0.0806282,0.009056392,-0.0030043644,-0.041385032,-0.0021693618,0.99914086,-0.9798378,0.1957172,-0.040159214,0.19546187,0.98065805,0.01022501,0.055066638183593745,0.2657563842773437,11.312602844238281,1.4949749,0.24535276,69.926155,0.030517578
-0.07900612568188072,0.0127901990985844,0.7051929565500753,-0.0806282,0.009056392,-0.0030043644,-0.041421857,-0.0012872252,0.99914086,-0.975446,0.21654673,-0.040159214,0.21630892,0.9762715,0.01022501,0.13168109130859373,0.14125789794921875,11.240776794433593,1.4949749,0.24535276,70.269196,0.030517578
-0.08260336917835759,0.010924961730040842,0.6325819304174867,-0.0806282,0.009056392,-0.0030043644,-0.04143888,-0.00049618055,0.99914086,-0.9711339,0.23513007,-0.04015921,0.2349081,0.9719639,0.01022501,0.13168109130859373,0.1149216796875,11.233594189453123,1.4949749,0.24535276,70.612015,0.030517578
-0.07594180714784488,0.008926493120887028,0.5274624815759962,-0.0806282,0.009056392,-0.0030043644,-0.0414416,0.00014438713,0.99914086,-0.96738356,0.2501125,-0.04015921,0.24990337,0.9682168,0.010225009,0.12449848632812499,-0.11013327636718749,11.226411584472656,1.4949749,0.24535276,70.95462,0.030517578
-0.08060490056920376,0.005329249624410167,0.28444869870289263,-0.0806282,0.009056392,-0.0030043644,-0.04143941,0.00044979277,0.99914086,-0.96551406,0.257235,-0.04015921,0.257032,0.9663488,0.01022501,0.06703764648437499,-0.34715924072265625,11.204863769531249,1.4949749,0.2347583,71.29656,0.030517578
-0.07447626350113207,0.0074609494741742334,-0.00985911180515881,-0.0806282,0.009056392,-0.0030043644,-0.04143941,0.00044979277,0.99914086,-0.96551406,0.257235,-0.04015921,0.257032,0.9663488,0.01022501,0.17238251953125,0.48123453369140623,11.18571015625,1.4949749,0.24944441,71.637924,0.030517578
-0.07807350699760894,0.007727411955394742,-0.002797856052815337,-0.0806282,0.009056392,-0.0030043644,-0.04143941,0.00044979277,0.99914086,-0.96551406,0.257235,-0.04015921,0.257032,0.9663488,0.01022501,0.16998831787109375,0.17477672119140625,11.274295617675781,1.4949749,0.24944441,71.98199,0.030517578
-0.07887289444127048,0.008793261880276773,-0.001732006127933304,-0.0806282,0.009056392,-0.0030043644,-0.04143941,0.00044979277,0.99914086,-0.96551406,0.257235,-0.04015921,0.257032,0.9663488,0.01022501,0.16041151123046873,0.29927520751953124,11.226411584472656,1.4949749,0.25854102,72.32322,0.030395508
-0.08007197560676275,0.0075941807147844875,-0.00013323124061025415,-0.0806282,0.009056392,-0.0030043644,-0.04143941,0.00044979277,0.99914086,-0.96551406,0.257235,-0.04015921,0.257032,0.9663488,0.01022501,0.16759411621093748,0.16998831787109375,11.262324609375,1.4949749,0.25854102,72.66829,0.030639648
-0.08113782553164478,0.008926493120887028,-0.0010658499248820332,-0.0806282,0.009056392,-0.0030043644,-0.04143941,0.00044979277,0.99914086,-0.96551406,0.257235,-0.04015921,0.257032,0.9663488,0.01022501,0.15083470458984374,0.2346317626953125,11.21683477783203,1.4949749,0.2657587,73.013336,0.030761719
-0.08087136305042428,0.010924961730040842,-0.0014655436467127959,-0.0806282,0.009056392,-0.0030043644,-0.04143941,0.00044979277,0.99914086,-0.96551406,0.257235,-0.04015921,0.257032,0.9663488,0.01022501,0.16041151123046873,0.19632453613281248,11.221623181152344,1.4949749,0.2657587,73.35716,0.030639648
-0.080205206847373,0.008926493120887028,-0.004263399699528133,-0.0806282,0.009056392,-0.0030043644,-0.04143941,0.00044979277,0.99914086,-0.96551406,0.257235,-0.04015921,0.257032,0.9663488,0.01022501,0.16759411621093748,0.258573779296875,11.250353601074218,1.4949749,0.27364975,73.70049,0.030517578
-0.0834027566220191,0.0075941807147844875,-0.004130168458917879,-0.0806282,0.009056392,-0.0030043644,-0.04143941,0.00044979277,0.99914086,-0.96551406,0.257235,-0.04015921,0.257032,0.9663488,0.01022501,0.19393033447265623,0.2753331909179687,11.252747802734374,1.4949749,0.28201863,74.04253,0.030395508
-0.08247013793774732,0.010258805526989571,-0.0018652373685435584,-0.0806282,0.009056392,-0.0030043644,-0.04143941,0.00044979277,0.99914086,-0.96551406,0.257235,-0.04015921,0.257032,0.9663488,0.01022501,0.13407529296874998,0.21068974609375,11.156979736328124,1.4949749,0.28844836,74.38301,0.030517578
-0.08087136305042428,0.008393568158446012,0.0009326186842717792,-0.0806282,0.009056392,-0.0030043644,-0.04143941,0.00044979277,0.99914086,-0.96551406,0.257235,-0.04015921,0.257032,0.9663488,0.01022501,0.12210428466796874,0.22026655273437498,11.192892761230468,1.4949749,0.29527792,74.73006,0.03100586
-0.08087136305042428,0.008260336917835759,-0.0018652373685435584,-0.0806282,0.009056392,-0.0030043644,-0.04143941,0.00044979277,0.99914086,-0.96551406,0.257235,-0.04015921,0.257032,0.9663488,0.01022501,0.1771709228515625,0.23223756103515625,11.180921752929686,1.4949749,0.30236524,75.07127,0.030517578
-0.07860643196004995,0.009059724361497283,-0.0003996937218307625,-0.0806282,0.009056392,-0.0030043644,-0.04143941,0.00044979277,0.99914086,-0.96551406,0.257235,-0.04015921,0.257032,0.9663488,0.01022501,0.13407529296874998,0.28969840087890625,11.262324609375,1.4949749,0.31120613,75.41497,0.030517578
-0.08073813180981403,0.01052526800821008,-0.00479632466196915,-0.0806282,0.009056392,-0.0030043644,-0.04143941,0.00044979277,0.99914086,-0.96551406,0.257235,-0.04015921,0.257032,0.9663488,0.01022501,0.22266075439453123,0.24181436767578124,11.209652172851563,1.5017699,0.31858572,75.757065,0.030517578
-0.08060490056920376,0.008926493120887028,-0.0010658499248820332,-0.0806282,0.009056392,-0.0030043644,-0.04143941,0.00044979277,0.99914086,-0.96551406,0.257235,-0.04015921,0.257032,0.9663488,0.01022501,0.22266075439453123,0.2537853759765625,11.25514200439453,1.508565,0.32633063,76.10055,0.030517578
-0.07794027575699868,0.009326186842717792,-0.002531393571594829,-0.0806282,0.009056392,-0.0030043644,-0.04143941,0.00044979277,0.99914086,-0.96551406,0.257235,-0.04015921,0.257032,0.9663488,0.01022501,0.201112939453125,0.2059013427734375,11.257536206054686,1.5147024,0.33261424,76.4441,0.030517578
-0.07927258816310122,0.00985911180515881,-0.002797856052815337,-0.0806282,0.009056392,-0.0030043644,-0.04143941,0.00044979277,0.99914086,-0.96551406,0.257235,-0.04015921,0.257032,0.9663488,0.01022501,0.14604630126953125,0.19393033447265623,11.152191333007812,1.5147024,0.33261424,76.78444,0.030517578
-0.08060490056920376,0.0075941807147844875,-0.004130168458917879,-0.0806282,0.009056392,-0.0030043644,-0.04143941,0.00044979277,0.99914086,-0.96551406,0.257235,-0.04015921,0.257032,0.9663488,0.01022501,0.13646949462890623,0.2059013427734375,11.326968054199218,1.5147024,0.33889785,77.13011,0.030517578
-0.08033843808798326,0.009192955602107537,-0.002797856052815337,-0.0806282,0.009056392,-0.0030043644,-0.04143941,0.00044979277,0.99914086,-0.96551406,0.257235,-0.04015921,0.257032,0.9663488,0.01022501,0.2154781494140625,0.258573779296875,11.18571015625,1.5212783,0.3467889,77.47147,0.030517578
-0.080205206847373,0.009992343045769061,-0.004263399699528133,-0.0806282,0.009056392,-0.0030043644,-0.04143941,0.00044979277,0.99914086,-0.96551406,0.257235,-0.04015921,0.257032,0.9663488,0.01022501,0.11731588134765625,0.22744915771484372,11.267113012695312,1.5212783,0.3537301,77.815315,0.030517578
-0.08153751925347555,0.01052526800821008,-0.0005329249624410166,-0.0806282,0.009056392,-0.0030043644,-0.04143941,0.00044979277,0.99914086,-0.96551406,0.257235,-0.04015921,0.257032,0.9663488,0.01022501,0.15322890625,0.229843359375,11.183315954589844,1.5212783,0.3607163,78.155235,0.030395508
-0.08113782553164478,0.008260336917835759,-0.0005329249624410166,-0.0806282,0.009056392,-0.0030043644,-0.04143941,0.00044979277,0.99914086,-0.96551406,0.257235,-0.04015921,0.257032,0.9663488,0.01022501,0.16280571289062498,0.20350714111328125,11.209652172851563,1.5212783,0.36692685,78.49733,0.030517578
-0.08180398173469605,0.011724349173702367,-0.0037304747370871167,-0.0806282,0.009056392,-0.0030043644,-0.04143941,0.00044979277,0.99914086,-0.96551406,0.257235,-0.04015921,0.257032,0.9663488,0.01022501,0.20829554443359374,0.26336218261718747,11.204863769531249,1.5276095,0.37493187,78.837906,0.030395508
-0.08726646259971647,0.002398162330984575,-0.004130168458917879,-0.0806282,0.009056392,-0.0030043644,-0.04143941,0.0007701464,0.9991407,-0.96551406,0.25722212,-0.040241685,0.257032,0.96635205,0.00991517,0.2705447875976562,0.19632453613281248,11.590330236816406,1.5358328,0.37493187,79.1902,0.030395508
-0.08393568158446013,0.012923430339194655,-0.0011990811654922875,-0.0806282,0.009056392,-0.0030043644,-0.04143941,0.0007701464,0.9991407,-0.96551406,0.25722212,-0.040241685,0.257032,0.96635205,0.00991517,0.22026655273437498,0.258573779296875,11.145008728027342,1.5425547,0.38282293,79.53032,0.030517578
-0.07820673823821919,0.007860643196004996,-0.004130168458917879,-0.0806282,0.009056392,-0.0030043644,-0.04143941,0.0007701464,0.9991407,-0.96551406,0.25722212,-0.040241685,0.257032,0.96635205,0.00991517,0.1867477294921875,0.19153613281249998,11.314997045898437,1.5425547,0.38282293,79.875626,0.030517578
-0.08180398173469605,0.01212404289553313,-0.0013323124061025418,-0.0806282,0.009056392,-0.0030043644,-0.04143941,0.0007701464,0.9991407,-0.96551406,0.25722212,-0.040241685,0.257032,0.96635205,0.00991517,0.22744915771484372,0.19153613281249998,11.111489904785156,1.5494959,0.38282293,80.21472,0.030517578
-0.08087136305042428,0.008127105677225504,-0.001732006127933304,-0.0806282,0.009056392,-0.0030043644,-0.04143941,0.0007701464,0.9991407,-0.96551406,0.25722212,-0.040241685,0.257032,0.96635205,0.00991517,0.22266075439453123,0.22026655273437498,11.243170996093749,1.5563182,0.38957182,80.55921,0.030639648
-0.08300306290018834,0.008260336917835759,-0.0030643185340358454,-0.0806282,0.009056392,-0.0030043644,-0.04143941,0.0007701464,0.9991407,-0.96551406,0.25722212,-0.040241685,0.257032,0.96635205,0.00991517,0.18435352783203124,0.258573779296875,11.145008728027342,1.5563182,0.397526,80.902054,0.030761719
-0.07420980101991156,0.015854517632620246,0.1743996939588227,-0.0806282,0.009056392,-0.0030043644,-0.04143147,0.0011185172,0.9991407,-0.9633174,0.2653305,-0.040241685,0.26514745,0.9641569,0.00991517,0.1867477294921875,1.1037269653320312,11.288660827636718,1.5563182,0.4313438,81.24793,0.030639648
-0.09139663105863435,0.01052526800821008,0.5736937220677545,-0.0806282,0.009056392,-0.0030043644,-0.041404493,0.0018670923,0.9991407,-0.95836496,0.28269643,-0.040241685,0.28252858,0.95920765,0.00991517,0.16519991455078123,0.47884033203125,11.046846459960937,1.5563182,0.44607374,81.58775,0.030761719
-0.0848683002687319,0.014255742745297196,0.6401761111322712,-0.0806282,0.009056392,-0.0030043644,-0.041357953,0.002708867,0.9991407,-0.9524167,0.30213094,-0.040241685,0.30198026,0.9532626,0.00991517,0.19393033447265623,0.3136404174804687,11.212046374511718,1.5563182,0.4556453,81.92992,0.030517578
-0.08886523748703952,0.011724349173702367,0.7488928034702387,-0.0806282,0.009056392,-0.0030043644,-0.04128534,0.0036522874,0.9991407,-0.94527143,0.32379416,-0.040241685,0.32366282,0.94612056,0.00991517,0.16998831787109375,0.258573779296875,11.212046374511718,1.5563182,0.46353635,82.27208,0.030517578
-0.08526799399056267,0.015588055151399738,0.6728177650817835,-0.0806282,0.009056392,-0.0030043644,-0.041201763,0.004498139,0.9991407,-0.93843275,0.34311032,-0.040241685,0.34299642,0.93928444,0.00991517,0.0909796630859375,0.2346317626953125,11.123460913085937,1.5563182,0.47069675,82.61154,0.030517578
-0.08540122523117291,0.012656967857974145,0.7686110270805562,-0.0806282,0.009056392,-0.0030043644,-0.04108196,0.0054855337,0.9991407,-0.9299291,0.3655304,-0.04024168,0.36543697,0.9307833,0.009915169,0.086191259765625,0.3232172241210937,11.269507214355468,1.5563182,0.4805211,82.95409,0.030395508
-0.07833996947882944,0.008260336917835759,0.8672021451321443,-0.0806282,0.009056392,-0.0030043644,-0.040918577,0.0065946165,0.9991407,-0.91970295,0.39054728,-0.04024168,0.39047697,0.92055935,0.009915169,0.09337386474609374,0.4860229370117187,11.243170996093749,1.5563182,0.49529403,83.29583,0.030395508
-0.08260336917835759,0.0095926493239383,1.0010995419454498,-0.0806282,0.009056392,-0.0030043644,-0.040693294,0.007866073,0.9991407,-0.90709066,0.41900745,-0.040241677,0.41896385,0.9079488,0.009915168,0.062249243164062495,0.3711012573242187,11.192892761230468,1.5563182,0.50661916,83.63741,0.030517578
-0.07714088831333717,0.007860643196004996,1.1315329265028886,-0.0806282,0.009056392,-0.0030043644,-0.040389262,0.009302013,0.9991407,-0.89168555,0.45086297,-0.040241666,0.4508498,0.8925447,0.009915166,0.05746083984375,0.5578489868164063,11.188104357910156,1.5563182,0.5236434,83.97884,0.030517578
-0.09152986229924462,0.006928024511733216,1.249042880721133,-0.0806282,0.009056392,-0.0030043644,-0.04000232,0.010845973,0.9991407,-0.87371635,0.48476836,-0.040241655,0.48478824,0.87457544,0.009915165,0.105344873046875,0.33518823242187495,11.279084020996093,1.5563182,0.5338316,84.32168,0.030395508
-0.08193721297530632,0.010392036767599824,1.2875467092574964,-0.0806282,0.009056392,-0.0030043644,-0.039545987,0.012407118,0.9991407,-0.85402375,0.51867545,-0.040241644,0.5187289,0.8548813,0.009915161,0.076614453125,0.33039982910156246,11.171344946289063,1.5563182,0.54387426,84.66124,0.030395508
-0.08153751925347555,0.007061255752343471,1.3085972452739165,-0.0806282,0.009056392,-0.0030043644,-0.039013192,0.013992625,0.9991407,-0.83240074,0.5527113,-0.04024163,0.55279934,0.8332554,0.009915157,0.1292868896484375,0.373495458984375,11.0707884765625,1.5563182,0.55527246,84.99909,0.030517578
-0.08273660041896783,0.01692036755750228,1.3472343050508901,-0.0806282,0.009056392,-0.0030043644,-0.038397197,0.01560382,0.9991407,-0.80868196,0.5868681,-0.040241614,0.58699167,0.8095323,0.0099151535,0.1484405029296875,0.2346317626953125,11.192892761230468,1.5563182,0.56254745,85.34614,0.03100586
-0.08286983165957809,0.011591117933092112,1.2463782559089276,-0.0806282,0.009056392,-0.0030043644,-0.037782874,0.017037584,0.9991407,-0.7860266,0.6168816,-0.040241603,0.6170371,0.7868717,0.009915151,0.1484405029296875,-0.02154781494140625,11.094730493164063,1.5563182,0.56254745,85.68472,0.030517578
-0.08673353763727547,0.012523736617363892,1.1411255758268268,-0.0806282,0.009056392,-0.0030043644,-0.03717517,0.01832572,0.9991407,-0.7643668,0.64352465,-0.04024159,0.64370906,0.76520604,0.009915148,0.16759411621093748,0.06464344482421874,11.154585534667968,1.5563182,0.56254745,86.02377,0.030395508
-0.08580091895300368,0.014655436467127957,1.0778407365369562,-0.0806282,0.009056392,-0.0030043644,-0.03655646,0.019530771,0.9991407,-0.74292904,0.6681595,-0.040241588,0.66837126,0.74376184,0.009915147,0.16041151123046873,0.17956512451171874,11.18571015625,1.5563182,0.56254745,86.36377,0.030395508
-0.0863338439154447,0.010791730489430587,1.0471975511965976,-0.0806282,0.009056392,-0.0030043644,-0.035910636,0.02069426,0.9991407,-0.7210966,0.691665,-0.040241584,0.6919033,0.72192204,0.009915144,0.11252747802734374,0.14125789794921875,11.314997045898437,1.5563182,0.56254745,86.709076,0.030517578
-0.08207044421591657,0.007194486992953725,1.0637182250322692,-0.0806282,0.009056392,-0.0030043644,-0.035217132,0.02185361,0.9991407,-0.6981719,0.71479845,-0.04024158,0.7150635,0.6989892,0.009915143,0.17956512451171874,0.2442085693359375,11.233594189453123,1.5563182,0.5700001,87.051895,0.030517578
-0.08393568158446013,0.014122511504686942,1.0380045955944903,-0.0806282,0.009056392,-0.0030043644,-0.034504626,0.0229621,0.9991407,-0.675096,0.7366316,-0.04024157,0.73692256,0.6759045,0.009915142,0.14604630126953125,0.17477672119140625,11.226411584472656,1.5563182,0.5700001,87.3945,0.030517578
-0.08220367545652682,0.010125574286379316,1.0506615634524643,-0.0806282,0.009056392,-0.0030043644,-0.033753894,0.023608066,0.9991513,-0.6510014,0.7580271,-0.039901692,0.7583257,0.65179586,0.010217054,0.2657563842773437,0.35194764404296874,11.29344923095703,1.5644284,0.5807407,87.73915,0.030517578
-0.08700000011849597,0.007194486992953725,1.1051531408620583,-0.0806282,0.009056392,-0.0030043644,-0.032929834,0.024744552,0.9991513,-0.624793,0.77977026,-0.03990169,0.78009576,0.6255767,0.010217051,0.13407529296874998,0.33758243408203126,11.149797131347656,1.5644284,0.5910017,88.07806,0.030395508
-0.09912404301402909,0.011724349173702367,1.1739004610169494,-0.0806282,0.009056392,-0.0030043644,-0.032017015,0.025914825,0.9991513,-0.59629536,0.8017729,-0.039901678,0.80212647,0.5970669,0.01021705,0.3016694091796875,0.3806780639648437,11.202469567871093,1.5736346,0.60261905,88.41993,0.030517578
-0.08100459429103453,0.016120980113840753,1.1922863722211645,-0.0806282,0.009056392,-0.0030043644,-0.031053713,0.027061692,0.9991513,-0.5667524,0.8229214,-0.039901666,0.8233028,0.56751055,0.010217047,0.239420166015625,0.316034619140625,11.269507214355468,1.5809412,0.6122637,88.76385,0.030517578
-0.08899846872764978,0.013589586542245924,1.1016891286061916,-0.0806282,0.009056392,-0.0030043644,-0.030136887,0.028079117,0.9991513,-0.5390811,0.8413082,-0.039901663,0.84171456,0.5398261,0.0102170445,0.22266075439453123,0.0,11.295843432617186,1.5877362,0.6122637,89.10857,0.030517578
-0.08247013793774732,0.008393568158446012,1.0705130183033922,-0.0806282,0.009056392,-0.0030043644,-0.029192418,0.029059801,0.9991513,-0.5109815,0.8586651,-0.03990166,0.85909593,0.5117127,0.010217044,0.258573779296875,0.277727392578125,11.202469567871093,1.5956273,0.6207392,89.45044,0.030517578
-0.08819908128398825,0.006661562030512709,1.1294012266531246,-0.0806282,0.009056392,-0.0030043644,-0.028164731,0.03005691,0.9991513,-0.4808275,0.8759069,-0.039901655,0.87636274,0.4815432,0.010217041,0.2442085693359375,0.26336218261718747,11.1474029296875,1.6031097,0.62880856,89.79199,0.030639648
-0.08193721297530632,0.011990811654922875,1.087699848342115,-0.0806282,0.009056392,-0.0030043644,-0.027148288,0.030978072,0.9991513,-0.4513951,0.8914317,-0.03990165,0.89191115,0.4520952,0.01021704,0.28490999755859375,0.15562310791015624,11.166556542968749,1.611874,0.62880856,90.1355,0.030761719
-0.07953905064432175,0.014122511504686942,1.068914243416069,-0.0806282,0.009056392,-0.0030043644,-0.026106177,0.03186124,0.9991513,-0.42158836,0.90590906,-0.039901648,0.9064115,0.4222722,0.010217039,0.2705447875976562,0.38307226562499996,11.319785449218749,1.6201965,0.6405925,90.48371,0.030761719
-0.09059724361497283,0.007993874436615249,1.210272589703549,-0.0806282,0.009056392,-0.0030043644,-0.024865186,0.032838915,0.9991513,-0.38653904,0.92140955,-0.039901637,0.9219379,0.3872031,0.010217036,0.22266075439453123,0.35673604736328124,11.018116040039061,1.6271274,0.651697,90.82668,0.03112793
-0.08553445647178318,0.011058192970651094,1.2770214412492862,-0.0806282,0.009056392,-0.0030043644,-0.02356768,0.033782203,0.9991513,-0.35036877,0.93576145,-0.03990162,0.93631536,0.35101175,0.010217033,0.26336218261718747,0.16041151123046873,11.113884106445312,1.6351646,0.651697,91.165855,0.030517578
-0.08953139369009079,0.010258805526989571,1.254505361586153,-0.0806282,0.009056392,-0.0030043644,-0.022267364,0.034653112,0.9991513,-0.31456846,0.94839585,-0.039901618,0.9489736,0.31518984,0.01021703,0.2825157958984375,0.33518823242187495,11.190498559570312,1.6437519,0.6618852,91.506,0.030395508
-0.09232924974290613,0.0073277182335639785,1.1780306294758671,-0.0806282,0.009056392,-0.0030043644,-0.021017183,0.035425305,0.9991513,-0.28054067,0.95901245,-0.039901607,0.9596121,0.28114107,0.010217029,0.2442085693359375,0.09337386474609374,11.219228979492186,1.6512045,0.6618852,91.84838,0.030517578
-0.09286217470534716,0.011457886692481857,1.0906309356355406,-0.0806282,0.009056392,-0.0030043644,-0.019839898,0.03609783,0.9991513,-0.24882609,0.967726,-0.039901603,0.96834505,0.24940643,0.010217028,0.22744915771484372,0.09576806640624999,11.142614526367186,1.6581457,0.6618852,92.18842,0.030517578
-0.07887289444127048,0.009725880564548555,0.9881761116062551,-0.0806282,0.009056392,-0.0030043644,-0.018753689,0.03667389,0.9991513,-0.21983257,0.9747213,-0.0399016,0.9753574,0.22039418,0.010217027,0.277727392578125,0.0718260498046875,11.202469567871093,1.6666212,0.6618852,92.5303,0.030517578
-0.0846018377875114,0.017586523760553547,0.9155650854736667,-0.0806282,0.009056392,-0.0030043644,-0.017720617,0.037184067,0.9991513,-0.19248447,0.9804885,-0.039901596,0.98114,0.19302806,0.010217026,0.19393033447265623,0.1005564697265625,11.317391247558593,1.6666212,0.6618852,92.87706,0.030639648
-0.08540122523117291,0.010392036767599824,0.9575329262658967,-0.0806282,0.009056392,-0.0030043644,-0.016621638,0.03768815,0.9991513,-0.16362435,0.98571545,-0.03990159,0.9863828,0.1641486,0.010217026,0.239420166015625,0.34237083740234375,11.212046374511718,1.6739278,0.67233354,93.21922,0.030517578
-0.08966462493070106,0.01372281778285618,1.0278790213081108,-0.0806282,0.009056392,-0.0030043644,-0.015409251,0.038199883,0.9991513,-0.13205324,0.99043924,-0.039901588,0.99112284,0.1325559,0.010217023,0.277727392578125,0.3064578125,11.166556542968749,1.6824033,0.68168586,93.56,0.030517578
-0.07807350699760894,0.01705359879811253,1.0674486997693564,-0.0806282,0.009056392,-0.0030043644,-0.0141713815,0.0386762,0.9991513,-0.10009661,0.99417734,-0.039901584,0.9948768,0.100577004,0.010217022,0.3327940307617187,0.12449848632812499,11.089942089843749,1.6925594,0.68168586,93.89844,0.030517578
-0.08233690669713707,0.011058192970651094,0.9705895878457016,-0.0806282,0.009056392,-0.0030043644,-0.0130275935,0.039076317,0.9991513,-0.070809655,0.99669147,-0.03990158,0.99740475,0.07126927,0.010217021,0.19871873779296872,0.14604630126953125,11.3389390625,1.6925594,0.68168586,94.24448,0.030517578
-0.0863338439154447,0.011990811654922875,0.993372129990055,-0.0806282,0.009056392,-0.0030043644,-0.011832264,0.039454717,0.9991513,-0.040442344,0.99838483,-0.039901577,0.9991119,0.04088004,0.010217021,0.3064578125,0.24181436767578124,11.082759484863281,1.7018743,0.68903595,94.581345,0.030395508
-0.08233690669713707,0.01732006127933304,0.9732542126579067,-0.0806282,0.009056392,-0.0030043644,-0.010661247,0.039787125,0.9991513,-0.0109233195,0.9991439,-0.039901573,0.99988353,0.011339341,0.01021702,0.35194764404296874,0.1292868896484375,11.14022032470703,1.7126149,0.68903595,94.92132,0.030517578
-0.08993108741192156,0.011591117933092112,0.9719219002518041,-0.0806282,0.009056392,-0.0030043644,-0.009461189,0.040089447,0.9991513,0.01909696,0.9990212,-0.039901573,0.9997729,-0.018703343,0.010217019,0.3902548706054687,0.30406361083984373,11.192892761230468,1.7245245,0.69831526,95.2629,0.030517578
-0.0848683002687319,0.009992343045769061,1.0272128651050596,-0.0806282,0.009056392,-0.0030043644,-0.0081879,0.04036876,0.9991513,0.05069944,0.9979165,-0.039901562,0.9986804,-0.050329812,0.010217018,0.3112462158203125,0.3184288208007812,11.109095703125,1.734023,0.70803297,95.60192,0.030517578
-0.08593415019361393,0.022249617181912446,1.051993875858567,-0.0806282,0.009056392,-0.0030043644,-0.006873874,0.04061316,0.9991513,0.08304898,0.9957463,-0.03990156,0.9965218,-0.08270433,0.0102170175,0.2753331909179687,0.28730419921875,11.389217297363281,1.7423918,0.7167657,95.948105,0.030395508
-0.07767381327577817,0.014122511504686942,1.1493859127446626,-0.0806282,0.009056392,-0.0030043644,-0.005392599,0.040836252,0.9991513,0.119200274,0.9920681,-0.039901547,0.99285555,-0.11888405,0.010217015,0.22505495605468748,0.44532150878906246,11.281478222656249,1.7493973,0.73062766,96.29927,0.03112793
-0.09152986229924462,0.024114854550456002,1.192419603461775,-0.0806282,0.009056392,-0.0030043644,-0.0039037494,0.04100538,0.9991513,0.15520458,0.9870763,-0.039901543,0.9878747,-0.15491721,0.010217014,0.27293898925781246,0.1197100830078125,11.3389390625,1.7577267,0.73062766,96.64531,0.030517578
-0.09139663105863435,0.01372281778285618,1.2090735085380564,-0.0806282,0.009056392,-0.0030043644,-0.0023890962,0.040736638,0.999167,0.19166614,0.9806642,-0.03952207,0.9814573,-0.19141218,0.010150227,0.24181436767578124,0.28969840087890625,11.197681164550781,1.7651062,0.7394686,96.98704,0.030517578
-0.0831362941407986,0.016254211354451008,1.2333215943291227,-0.0806282,0.009056392,-0.0030043644,-0.00083763385,0.04079805,0.999167,0.22883452,0.9726627,-0.039522056,0.973465,-0.22861093,0.010150224,0.28012159423828126,0.2346317626953125,11.274295617675781,1.7736548,0.74662894,97.3311,0.030517578
-0.0834027566220191,0.015588055151399738,1.3035344581307267,-0.0806282,0.009056392,-0.0030043644,0.0004698803,0.040805437,0.99916697,0.26766735,0.9627039,-0.03944023,0.9635113,-0.267463,0.010469407,0.26336218261718747,0.35673604736328124,11.276689819335937,1.781692,0.75751567,97.67524,0.030517578
-0.07407656977930133,0.025180704475338038,1.3521638609534694,-0.0806282,0.009056392,-0.0030043644,0.0021497258,0.040403843,0.9991811,0.30724937,0.95082515,-0.03910754,0.9516266,-0.3070819,0.010369519,0.258573779296875,0.24899697265624998,11.298237634277344,1.7895515,0.7650841,98.018654,0.030395508
-0.08739969384032674,0.01372281778285618,1.3844058211811512,-0.0806282,0.009056392,-0.0030043644,0.0038573148,0.039911054,0.99919575,0.347385,0.9369211,-0.038762648,0.9377147,-0.3472552,0.010249976,0.28730419921875,0.21308394775390624,11.348515869140625,1.7983193,0.7715869,98.36498,0.030517578
-0.07794027575699868,0.005995405827461438,1.3444364489980747,-0.0806282,0.009056392,-0.0030043644,0.0054842304,0.039720215,0.99919575,0.38536283,0.92195064,-0.038762633,0.9227488,-0.38526556,0.010249972,0.32082302246093747,0.21068974609375,11.0707884765625,1.8081101,0.7780166,98.702835,0.030517578
-0.08286983165957809,0.014655436467127957,1.2481102620368612,-0.0806282,0.009056392,-0.0030043644,0.0069697937,0.039486643,0.99919575,0.4196629,0.906852,-0.038762625,0.90765333,-0.41959566,0.010249971,0.22266075439453123,-0.040701428222656245,11.197681164550781,1.814878,0.7780166,99.0432,0.030395508
-0.07860643196004995,0.010791730489430587,1.1592450245498214,-0.0806282,0.009056392,-0.0030043644,0.008350486,0.03921789,0.99919575,0.45121214,0.89157444,-0.038762618,0.8923776,-0.45117307,0.010249969,0.26815058593749996,0.040701428222656245,11.305420239257812,1.8230613,0.7780166,99.388214,0.030517578
-0.08713323135910622,0.009326186842717792,1.1235390520662734,-0.0806282,0.009056392,-0.0030043644,0.009683281,0.038910255,0.99919575,0.48135963,0.87566566,-0.038762614,0.87646973,-0.48134798,0.010249968,0.3064578125,0.05027823486328125,11.111489904785156,1.8323762,0.7780166,99.72595,0.030395508
-0.08420214406568063,0.013589586542245924,1.0511944884149054,-0.0806282,0.009056392,-0.0030043644,0.010917049,0.03858228,0.99919575,0.5089917,0.85989815,-0.03876261,0.8607022,-0.50900567,0.010249967,0.3064578125,-0.105344873046875,11.243170996093749,1.8417286,0.7780166,100.06907,0.030517578
-0.08247013793774732,0.007860643196004996,0.9669923443492248,-0.0806282,0.009056392,-0.0030043644,0.011728429,0.038252458,0.9991992,0.5338307,0.8447099,-0.03860205,0.84551007,-0.53385603,0.0105126705,0.3591302490234375,-0.09337386474609374,10.996568225097656,1.8526446,0.7780166,100.40331,0.030395508
-0.07687442583211665,0.012656967857974145,0.8624058204701752,-0.0806282,0.009056392,-0.0030043644,0.01270223,0.03753292,0.9992146,0.5553592,0.83073,-0.03826198,0.83151364,-0.5554091,0.01029158,0.38307226562499996,-0.0526724365234375,11.212046374511718,1.8643351,0.7780166,100.745476,0.030517578
-0.08007197560676275,0.0095926493239383,0.7009295568505473,-0.0806282,0.009056392,-0.0030043644,0.013471503,0.037263725,0.9992146,0.57232773,0.81913185,-0.038261976,0.8199144,-0.5723938,0.01029158,0.296881005859375,-0.12689268798828124,11.281478222656249,1.8733952,0.7780166,101.08976,0.030517578
-0.0846018377875114,0.009992343045769061,0.5539754984574369,-0.0806282,0.009056392,-0.0030043644,0.014080486,0.037037905,0.9992146,0.5856773,0.80964077,-0.038261976,0.8104221,-0.5857562,0.01029158,0.3591302490234375,-0.10773907470703124,11.276689819335937,1.8843112,0.7780166,101.43252,0.030395508
-0.07927258816310122,0.013056661579804908,0.4761684539410484,-0.0806282,0.009056392,-0.0030043644,0.0146114575,0.03683167,0.9992146,0.5972555,0.8011379,-0.038261976,0.801918,-0.5973456,0.01029158,0.354341845703125,-0.00718260498046875,11.269507214355468,1.8951249,0.7780166,101.776436,0.030517578
-0.08220367545652682,0.0127901990985844,0.4848284845807149,-0.0806282,0.009056392,-0.0030043644,0.01516204,0.036608458,0.9992146,0.6092,0.7920931,-0.038261976,0.7928718,-0.60930175,0.01029158,0.41419688720703124,0.13646949462890623,11.245565197753905,1.9077652,0.7780166,102.11962,0.030517578
-0.08433537530629089,0.014522205226517705,0.4988177648447916,-0.0806282,0.009056392,-0.0030043644,0.015721342,0.036371775,0.9992146,0.6212685,0.7826631,-0.038261976,0.7834401,-0.6213822,0.01029158,0.36152445068359373,0.14125789794921875,11.276689819335937,1.918798,0.7780166,102.46376,0.030517578
-0.08420214406568063,0.010125574286379316,0.4825635534903406,-0.0806282,0.009056392,-0.0030043644,0.016243303,0.03614169,0.9992146,0.63247097,0.77363855,-0.038261976,0.7744138,-0.6325958,0.01029158,0.3591302490234375,-0.105344873046875,11.2240173828125,1.9297577,0.7780166,102.80629,0.030517578
-0.08673353763727547,0.0075941807147844875,0.39276569731902927,-0.0806282,0.009056392,-0.0030043644,0.016664311,0.03594951,0.9992146,0.6414635,0.7661989,-0.038261976,0.7669726,-0.6415974,0.01029158,0.29927520751953124,-0.105344873046875,11.173739147949219,1.9388908,0.7780166,103.147285,0.030517578
-0.07953905064432175,0.012257274136143382,0.2856477798683849,-0.0806282,0.009056392,-0.0030043644,0.016958067,0.035811875,0.9992146,0.6477148,0.7609216,-0.038261976,0.7616942,-0.647855,0.01029158,0.3399766357421875,-0.11731588134765625,11.259930407714844,1.9492661,0.7780166,103.49091,0.030517578
-0.0868667688778857,0.008393568158446012,0.20504287929918116,-0.0806282,0.009056392,-0.0030043644,0.017194534,0.035698943,0.9992146,0.6527329,0.75662136,-0.038261976,0.75739306,-0.6528782,0.010291581,0.44532150878906246,0.16280571289062498,11.269507214355468,1.9628562,0.7780166,103.83483,0.030517578
-0.08433537530629089,0.011990811654922875,0.29164318569584635,-0.0806282,0.009056392,-0.0030043644,0.017524956,0.035537902,0.9992146,0.65972364,0.7505337,-0.038261976,0.75130403,-0.6598761,0.010291581,0.3902548706054687,0.2705447875976562,11.247959399414063,1.9747658,0.786273,104.17809,0.030517578
-0.08153751925347555,0.008526799399056265,0.3754456360396962,-0.0806282,0.009056392,-0.0030043644,0.017950747,0.03532474,0.9992146,0.66869515,0.7425516,-0.038261976,0.7433201,-0.66885686,0.010291581,0.4429273071289062,0.3232172241210937,11.113884106445312,1.9882828,0.7961368,104.517265,0.030517578
-0.08047166932859352,0.010258805526989571,0.4295375197274594,-0.0806282,0.009056392,-0.0030043644,0.018406915,0.035089202,0.9992146,0.6782597,0.73382556,-0.038261976,0.73459184,-0.6784313,0.01029158,0.34237083740234375,-0.0143652099609375,11.25514200439453,1.9987311,0.7961368,104.86075,0.030517578
-0.08047166932859352,0.0095926493239383,0.3614563557756195,-0.0806282,0.009056392,-0.0030043644,0.018785743,0.034887858,0.9992146,0.686165,0.7264391,-0.038261976,0.7272035,-0.68634486,0.01029158,0.3591302490234375,-0.0526724365234375,11.1474029296875,2.0096471,0.7961368,105.19958,0.030395508
-0.0814042880128653,0.00985911180515881,0.3254839208108509,-0.0806282,0.009056392,-0.0030043644,0.019126214,0.03470237,0.9992146,0.69324017,0.7196904,-0.038261976,0.72045296,-0.6934275,0.01029158,0.3591302490234375,0.086191259765625,11.21683477783203,2.020607,0.7961368,105.541885,0.030517578
-0.08180398173469605,0.011324655451871604,0.2153016848261707,-0.0806282,0.009056392,-0.0030043644,0.01932427,0.034592476,0.9992146,0.69734275,0.7157159,-0.038261976,0.7164774,-0.69753444,0.01029158,0.373495458984375,-0.2537853759765625,11.154585534667968,2.0319595,0.7884229,105.880936,0.030395508
-0.08207044421591657,0.007993874436615249,-0.002797856052815337,-0.0806282,0.009056392,-0.0030043644,0.01932427,0.034592476,0.9992146,0.69734275,0.7157159,-0.038261976,0.7164774,-0.69753444,0.01029158,0.32082302246093747,0.21308394775390624,11.171344946289063,2.041711,0.7948997,106.2205,0.030395508
-0.07967228188493199,0.005995405827461438,-0.0029310872934255917,-0.0806282,0.009056392,-0.0030043644,0.01932427,0.034592476,0.9992146,0.69734275,0.7157159,-0.038261976,0.7164774,-0.69753444,0.01029158,0.36391865234375,0.10773907470703124,11.235988391113281,2.052817,0.7948997,106.56339,0.030517578
-0.08620061267483445,0.01052526800821008,-0.0019984686091538122,-0.0806282,0.009056392,-0.0030043644,0.01932427,0.034592476,0.9992146,0.69734275,0.7157159,-0.038261976,0.7164774,-0.69753444,0.01029158,0.411802685546875,0.0430956298828125,11.17852755126953,2.0656357,0.7948997,106.911354,0.03112793
-0.0831362941407986,0.01052526800821008,0.0,-0.0806282,0.009056392,-0.0030043644,0.01932427,0.034592476,0.9992146,0.69734275,0.7157159,-0.038261976,0.7164774,-0.69753444,0.01029158,0.3806780639648437,0.08379705810546874,11.188104357910156,2.077253,0.7948997,107.252785,0.030517578
-0.080205206847373,0.00985911180515881,-0.0010658499248820332,-0.0806282,0.009056392,-0.0030043644,0.01932427,0.034592476,0.9992146,0.69734275,0.7157159,-0.038261976,0.7164774,-0.69753444,0.01029158,0.35194764404296874,0.11252747802734374,11.18571015625,2.0879936,0.7948997,107.59415,0.030517578
-0.07940581940371148,0.005995405827461438,-0.0011990811654922875,-0.0806282,0.009056392,-0.0030043644,0.01932427,0.034592476,0.9992146,0.69734275,0.7157159,-0.038261976,0.7164774,-0.69753444,0.01029158,0.296881005859375,0.11731588134765625,11.195286962890624,2.0970175,0.7948997,107.93443,0.030395508
-0.08073813180981403,0.011457886692481857,-0.004263399699528133,-0.0806282,0.009056392,-0.0030043644,0.01932427,0.034592476,0.9992146,0.69734275,0.7157159,-0.038261976,0.7164774,-0.69753444,0.01029158,0.39743747558593745,0.06703764648437499,11.295843432617186,2.109098,0.7948997,108.27778,0.030395508
-0.07927258816310122,0.00985911180515881,-0.0005329249624410166,-0.0806282,0.009056392,-0.0030043644,0.01932427,0.034592476,0.9992146,0.69734275,0.7157159,-0.038261976,0.7164774,-0.69753444,0.01029158,0.3758896606445312,0.09816226806640624,11.200075366210937,2.1205692,0.7948997,108.619576,0.030517578
-0.08513476274995241,0.008793261880276773,-0.002531393571594829,-0.0806282,0.009056392,-0.0030043644,0.01932427,0.034592476,0.9992146,0.69734275,0.7157159,-0.038261976,0.7164774,-0.69753444,0.01029158,0.373495458984375,0.04548983154296875,11.176133349609374,2.1319673,0.7948997,108.96065,0.030517578
-0.08326952538140886,0.008393568158446012,-0.0005329249624410166,-0.0806282,0.009056392,-0.0030043644,0.01932427,0.034592476,0.9992146,0.69734275,0.7157159,-0.038261976,0.7164774,-0.69753444,0.01029158,0.316034619140625,0.11013327636718749,11.197681164550781,2.1416118,0.7948997,109.302376,0.030517578
-0.08073813180981403,0.012923430339194655,-0.00159877488732305,-0.0806282,0.009056392,-0.0030043644,0.01932427,0.034592476,0.9992146,0.69734275,0.7157159,-0.038261976,0.7164774,-0.69753444,0.01029158,0.38786066894531246,0.00718260498046875,11.243170996093749,2.1534483,0.7948997,109.64549,0.030517578
-0.08073813180981403,0.009459418083328047,-0.002531393571594829,-0.0806282,0.009056392,-0.0030043644,0.01932427,0.034592476,0.9992146,0.69734275,0.7157159,-0.038261976,0.7164774,-0.69753444,0.01029158,0.3495534423828125,0.1292868896484375,11.259930407714844,2.164116,0.7948997,109.98912,0.030517578
-0.08247013793774732,0.012523736617363892,-0.004396630940138387,-0.0806282,0.009056392,-0.0030043644,0.01932427,0.034592476,0.9992146,0.69734275,0.7157159,-0.038261976,0.7164774,-0.69753444,0.01029158,0.3950432739257812,0.076614453125,11.245565197753905,2.1761234,0.7948997,110.33093,0.030395508
-0.08060490056920376,0.012523736617363892,-0.002398162330984575,-0.0806282,0.009056392,-0.0030043644,0.01932427,0.034592476,0.9992146,0.69734275,0.7157159,-0.038261976,0.7164774,-0.69753444,0.01029158,0.39743747558593745,0.09576806640624999,11.269507214355468,2.1882038,0.7948997,110.67348,0.030395508
-0.07927258816310122,0.008793261880276773,-0.0033307810152563544,-0.0806282,0.009056392,-0.0030043644,0.01932427,0.034592476,0.9992146,0.69734275,0.7157159,-0.038261976,0.7164774,-0.69753444,0.01029158,0.39983167724609375,0.08379705810546874,11.269507214355468,2.2004056,0.7948997,111.017395,0.030517578
-0.08247013793774732,0.008926493120887028,-0.0003996937218307625,-0.0806282,0.009056392,-0.0030043644,0.01932427,0.034592476,0.9992146,0.69734275,0.7157159,-0.038261976,0.7164774,-0.69753444,0.01029158,0.3902548706054687,0.08140285644531249,11.283872424316405,2.2123153,0.7948997,111.36175,0.030517578
-0.07887289444127048,0.009725880564548555,-0.002398162330984575,-0.0806282,0.009056392,-0.0030043644,0.01932427,0.034592476,0.9992146,0.69734275,0.7157159,-0.038261976,0.7164774,-0.69753444,0.01029158,0.430956298828125,0.06943184814453125,11.276689819335937,2.225467,0.7948997,111.70589,0.030517578
-0.07953905064432175,0.007993874436615249,-0.0058621745868511835,-0.0806282,0.009056392,-0.0030043644,0.01932427,0.034592476,0.9992146,0.69734275,0.7157159,-0.038261976,0.7164774,-0.69753444,0.01029158,0.3902548706054687,0.10295067138671875,11.209652172851563,2.2373767,0.7948997,112.04798,0.030517578
-0.0816707504940858,0.011724349173702367,-0.004130168458917879,-0.0806282,0.009056392,-0.0030043644,0.01932427,0.034592476,0.9992146,0.69734275,0.7157159,-0.038261976,0.7164774,-0.69753444,0.01029158,0.38786066894531246,0.10773907470703124,11.240776794433593,2.2494028,0.7948997,112.396515,0.03100586
-0.08233690669713707,0.009192955602107537,-0.00479632466196915,-0.0806282,0.009056392,-0.0030043644,0.01932427,0.034592476,0.9992146,0.69734275,0.7157159,-0.038261976,0.7164774,-0.69753444,0.01029158,0.3758896606445312,0.0718260498046875,11.207257971191405,2.260874,0.7948997,112.73853,0.030517578
-0.0814042880128653,0.0095926493239383,-0.0035972434964768626,-0.0806282,0.009056392,-0.0030043644,0.01932427,0.034592476,0.9992146,0.69734275,0.7157159,-0.038261976,0.7164774,-0.69753444,0.01029158,0.3758896606445312,0.11013327636718749,11.195286962890624,2.2722993,0.7948997,113.07882,0.030395508
-0.08300306290018834,0.009459418083328047,-0.0033307810152563544,-0.0806282,0.009056392,-0.0030043644,0.01932427,0.034592476,0.9992146,0.69734275,0.7157159,-0.038261976,0.7164774,-0.69753444,0.01029158,0.3495534423828125,0.08379705810546874,11.259930407714844,2.2829669,0.7948997,113.42245,0.030517578
-0.0814042880128653,0.009992343045769061,-0.001732006127933304,-0.0806282,0.009056392,-0.0030043644,0.01932427,0.034592476,0.9992146,0.69734275,0.7157159,-0.038261976,0.7164774,-0.69753444,0.01029158,0.4525041137695312,0.0718260498046875,11.171344946289063,2.2967763,0.7948997,113.76337,0.030517578
-0.08326952538140886,0.006661562030512709,-0.00479632466196915,-0.0806282,0.009056392,-0.0030043644,0.01932427,0.034592476,0.9992146,0.69734275,0.7157159,-0.038261976,0.7164774,-0.69753444,0.01029158,0.4429273071289062,0.062249243164062495,11.145008728027342,2.3102393,0.7948997,114.10213,0.030395508
-0.08153751925347555,0.008127105677225504,-0.0035972434964768626,-0.0806282,0.009056392,-0.0030043644,0.01932427,0.034592476,0.9992146,0.69734275,0.7157159,-0.038261976,0.7164774,-0.69753444,0.01029158,0.3902548706054687,0.08140285644531249,11.2240173828125,2.3221014,0.7948997,114.44328,0.030395508
-0.0814042880128653,0.009725880564548555,-0.004130168458917879,-0.0806282,0.009056392,-0.0030043644,0.01932427,0.034592476,0.9992146,0.69734275,0.7157159,-0.038261976,0.7164774,-0.69753444,0.01029158,0.3950432739257812,0.12210428466796874,11.219228979492186,2.3341572,0.7948997,114.78567,0.030517578
-0.07780704451638844,0.008393568158446012,-0.0037304747370871167,-0.0806282,0.009056392,-0.0030043644,0.01932427,0.034592476,0.9992146,0.69734275,0.7157159,-0.038261976,0.7164774,-0.69753444,0.01029158,0.3495534423828125,0.17956512451171874,11.176133349609374,2.3448675,0.7948997,115.1281,0.030639648
-0.07993874436615249,0.009725880564548555,-0.0005329249624410166,-0.0806282,0.009056392,-0.0030043644,0.01932427,0.034592476,0.9992146,0.69734275,0.7157159,-0.038261976,0.7164774,-0.69753444,0.01029158,0.3758896606445312,0.07422025146484375,11.226411584472656,2.3562927,0.7948997,115.46933,0.030395508
-0.08100459429103453,0.008393568158446012,-0.0010658499248820332,-0.0806282,0.009056392,-0.0030043644,0.01932427,0.034592476,0.9992146,0.69734275,0.7157159,-0.038261976,0.7164774,-0.69753444,0.01029158,0.43574470214843747,0.1149216796875,11.219228979492186,2.3695905,0.7948997,115.811714,0.030517578
-0.08286983165957809,0.011324655451871604,-0.0030643185340358454,-0.0806282,0.009056392,-0.0030043644,0.01932427,0.034592476,0.9992146,0.69734275,0.7157159,-0.038261976,0.7164774,-0.69753444,0.01029158,0.3806780639648437,0.06943184814453125,11.214440576171874,2.381208,0.7948997,116.15395,0.030517578
-0.08033843808798326,0.009059724361497283,-0.001732006127933304,-0.0806282,0.009056392,-0.0030043644,0.01932427,0.034592476,0.9992146,0.69734275,0.7157159,-0.038261976,0.7164774,-0.69753444,0.01029158,0.4333505004882812,0.0718260498046875,11.25514200439453,2.3944328,0.7948997,116.49744,0.030517578
-0.08087136305042428,0.006794793271122962,-0.005062787143189658,-0.0806282,0.009056392,-0.0030043644,0.01932427,0.034592476,0.9992146,0.69734275,0.7157159,-0.038261976,0.7164774,-0.69753444,0.01029158,0.42377369384765623,0.16041151123046873,11.233594189453123,2.4073653,0.7948997,116.840256,0.030517578
-0.08180398173469605,0.009326186842717792,-0.002264931090374321,-0.0806282,0.009056392,-0.0030043644,0.01932427,0.034592476,0.9992146,0.69734275,0.7157159,-0.038261976,0.7164774,-0.69753444,0.01029158,0.3950432739257812,0.06703764648437499,11.238382592773437,2.4194212,0.7948997,117.18323,0.030517578
-0.07980551312554225,0.009459418083328047,-0.003464012255866608,-0.0806282,0.009056392,-0.0030043644,0.01932427,0.034592476,0.9992146,0.69734275,0.7157159,-0.038261976,0.7164774,-0.69753444,0.01029158,0.4381389038085937,0.0909796630859375,11.233594189453123,2.4327385,0.7948997,117.52468,0.030395508
-0.0814042880128653,0.008127105677225504,-0.002531393571594829,-0.0806282,0.009056392,-0.0030043644,0.01932427,0.034592476,0.9992146,0.69734275,0.7157159,-0.038261976,0.7164774,-0.69753444,0.01029158,0.36631285400390623,0.06943184814453125,11.200075366210937,2.4440963,0.7948997,117.87195,0.03100586
-0.08180398173469605,0.011324655451871604,-0.004263399699528133,-0.0806282,0.009056392,-0.0030043644,0.01932427,0.034592476,0.9992146,0.69734275,0.7157159,-0.038261976,0.7164774,-0.69753444,0.01029158,0.39743747558593745,0.0718260498046875,11.231199987792968,2.4562252,0.7948997,118.2147,0.030517578
-0.08113782553164478,0.008926493120887028,-0.003863705977697371,-0.0806282,0.009056392,-0.0030043644,0.01932427,0.034592476,0.9992146,0.69734275,0.7157159,-0.038261976,0.7164774,-0.69753444,0.01029158,0.35194764404296874,0.11731588134765625,11.145008728027342,2.4669228,0.7948997,118.55346,0.030395508
-0.08060490056920376,0.009992343045769061,-0.0029310872934255917,-0.0806282,0.009056392,-0.0030043644,0.01932427,0.034592476,0.9992146,0.69734275,0.7157159,-0.038261976,0.7164774,-0.69753444,0.01029158,0.39743747558593745,0.1005564697265625,11.137826123046874,2.4790516,0.7948997,118.89336,0.030517578
-0.07873966320066021,0.010258805526989571,-0.002797856052815337,-0.0806282,0.009056392,-0.0030043644,0.01932427,0.034592476,0.9992146,0.69734275,0.7157159,-0.038261976,0.7164774,-0.69753444,0.01029158,0.34237083740234375,0.0383072265625,11.262324609375,2.4894998,0.7948997,119.23705,0.030517578
-0.080205206847373,0.0074609494741742334,-0.005196018383799912,-0.0806282,0.009056392,-0.0030043644,0.01932427,0.034592476,0.9992146,0.69734275,0.7157159,-0.038261976,0.7164774,-0.69753444,0.01029158,0.411802685546875,0.086191259765625,11.243170996093749,2.5020168,0.7948997,119.5788,0.030395508
-0.0814042880128653,0.01438897398590745,0.000799387443661525,-0.0806282,0.009056392,-0.0030043644,0.01932427,0.034592476,0.9992146,0.69734275,0.7157159,-0.038261976,0.7164774,-0.69753444,0.01029158,0.3902548706054687,0.09816226806640624,11.21683477783203,2.5139265,0.7948997,119.921104,0.030517578
-0.0814042880128653,0.01052526800821008,0.0,-0.0806282,0.009056392,-0.0030043644,0.01932427,0.034592476,0.9992146,0.69734275,0.7157159,-0.038261976,0.7164774,-0.69753444,0.01029158,0.39983167724609375,0.0383072265625,11.267113012695312,2.5261283,0.7948997,120.264946,0.030517578
-0.08127105677225505,0.011457886692481857,-0.002264931090374321,-0.0806282,0.009056392,-0.0030043644,0.01932427,0.034592476,0.9992146,0.69734275,0.7157159,-0.038261976,0.7164774,-0.69753444,0.01029158,0.430956298828125,0.02633621826171875,11.145008728027342,2.5392275,0.7948997,120.60371,0.030395508
-0.08273660041896783,0.011724349173702367,-0.004263399699528133,-0.0806282,0.009056392,-0.0030043644,0.01932427,0.034592476,0.9992146,0.69734275,0.7157159,-0.038261976,0.7164774,-0.69753444,0.01029158,0.33518823242187495,0.05027823486328125,11.271901416015623,2.5494156,0.7948997,120.94632,0.030395508
-0.08247013793774732,0.0074609494741742334,-0.005329249624410167,-0.0806282,0.009056392,-0.0030043644,0.01932427,0.034592476,0.9992146,0.69734275,0.7157159,-0.038261976,0.7164774,-0.69753444,0.01029158,0.411802685546875,0.12689268798828124,11.171344946289063,2.5619829,0.7948997,121.28724,0.030517578
-0.07980551312554225,0.0073277182335639785,-0.00159877488732305,-0.0806282,0.009056392,-0.0030043644,0.01932427,0.034592476,0.9992146,0.69734275,0.7157159,-0.038261976,0.7164774,-0.69753444,0.01029158,0.4213794921875,0.03591302490234375,11.235988391113281,2.5748425,0.7948997,121.630135,0.030517578
-0.08113782553164478,0.01052526800821008,0.0013323124061025418,-0.0806282,0.009056392,-0.0030043644,0.01932427,0.034592476,0.9992146,0.69734275,0.7157159,-0.038261976,0.7164774,-0.69753444,0.01029158,0.373495458984375,0.15083470458984374,11.240776794433593,2.586195,0.7948997,121.9718,0.030395508
-0.08100459429103453,0.0095926493239383,-0.0019984686091538122,-0.0806282,0.009056392,-0.0030043644,0.01932427,0.034592476,0.9992146,0.69734275,0.7157159,-0.038261976,0.7164774,-0.69753444,0.01029158,0.3687070556640625,0.12449848632812499,11.202469567871093,2.5974472,0.7948997,122.313675,0.030517578
-0.0814042880128653,0.008127105677225504,-0.00159877488732305,-0.0806282,0.009056392,-0.0030043644,0.01932427,0.034592476,0.9992146,0.69734275,0.7157159,-0.038261976,0.7164774,-0.69753444,0.01029158,0.35194764404296874,0.07422025146484375,11.274295617675781,2.6081877,0.7948997,122.65774,0.030517578
-0.07807350699760894,0.0095926493239383,-0.002797856052815337,-0.0806282,0.009056392,-0.0030043644,0.01932427,0.034592476,0.9992146,0.69734275,0.7157159,-0.038261976,0.7164774,-0.69753444,0.01029158,0.3495534423828125,0.06943184814453125,11.274295617675781,2.6188552,0.7948997,123.0018,0.030517578
-0.07980551312554225,0.009459418083328047,-0.0035972434964768626,-0.0806282,0.009056392,-0.0030043644,0.01932427,0.034592476,0.9992146,0.69734275,0.7157159,-0.038261976,0.7164774,-0.69753444,0.01029158,0.3016694091796875,0.086191259765625,11.231199987792968,2.6280615,0.7948997,123.34455,0.030517578
-0.07727411955394742,0.0095926493239383,0.0,-0.0806282,0.009056392,-0.0030043644,0.01932427,0.034592476,0.9992146,0.69734275,0.7157159,-0.038261976,0.7164774,-0.69753444,0.01029158,0.373495458984375,0.06464344482421874,11.394005700683593,2.6394596,0.7948997,123.69227,0.030517578
-0.08220367545652682,0.0074609494741742334,-0.005062787143189658,-0.0806282,0.009056392,-0.0030043644,0.01932427,0.034592476,0.9992146,0.69734275,0.7157159,-0.038261976,0.7164774,-0.69753444,0.01029158,0.35194764404296874,0.086191259765625,11.168950744628905,2.6502001,0.7948997,124.03312,0.030517578
-0.08087136305042428,0.009192955602107537,-0.0037304747370871167,-0.0806282,0.009056392,-0.0030043644,0.01932427,0.034592476,0.9992146,0.69734275,0.7157159,-0.038261976,0.7164774,-0.69753444,0.01029158,0.3447650390625,0.040701428222656245,11.245565197753905,2.6607215,0.7948997,124.376305,0.030517578
-0.07873966320066021,0.011058192970651094,-0.0013323124061025418,-0.0806282,0.009056392,-0.0030043644,0.01932427,0.034592476,0.9992146,0.69734275,0.7157159,-0.038261976,0.7164774,-0.69753444,0.01029158,0.3902548706054687,0.15083470458984374,11.231199987792968,2.6726313,0.7948997,124.719055,0.030517578
-0.08220367545652682,0.011990811654922875,-0.002531393571594829,-0.0806282,0.009056392,-0.0030043644,0.01932427,0.034592476,0.9992146,0.69734275,0.7157159,-0.038261976,0.7164774,-0.69753444,0.01029158,0.44532150878906246,0.08140285644531249,11.231199987792968,2.6862214,0.7948997,125.061806,0.030517578
-0.08207044421591657,0.008393568158446012,-0.002264931090374321,-0.0806282,0.009056392,-0.0030043644,0.01932427,0.034592476,0.9992146,0.69734275,0.7157159,-0.038261976,0.7164774,-0.69753444,0.01029158,0.3016694091796875,0.11731588134765625,11.307814440917968,2.6954277,0.7948997,125.40689,0.030517578
-0.08220367545652682,0.00866003063966652,0.0014655436467127959,-0.0806282,0.009056392,-0.0030043644,0.01932427,0.034592476,0.9992146,0.69734275,0.7157159,-0.038261976,0.7164774,-0.69753444,0.01029158,0.3495534423828125,0.15562310791015624,11.247959399414063,2.7060952,0.7948997,125.75015,0.030517578
-0.08153751925347555,0.006128637068071691,-0.002797856052815337,-0.0806282,0.009056392,-0.0030043644,0.01932427,0.034592476,0.9992146,0.69734275,0.7157159,-0.038261976,0.7164774,-0.69753444,0.01029158,0.40222587890625,0.0909796630859375,11.152191333007812,2.718321,0.7948997,126.08913,0.030395508
-0.08060490056920376,0.008260336917835759,-0.0030643185340358454,-0.0806282,0.009056392,-0.0030043644,0.01932427,0.034592476,0.9992146,0.69734275,0.7157159,-0.038261976,0.7164774,-0.69753444,0.01029158,0.38307226562499996,0.076614453125,11.2240173828125,2.7299647,0.7948997,126.43028,0.030395508
-0.08153751925347555,0.00866003063966652,-0.004130168458917879,-0.0806282,0.009056392,-0.0030043644,0.01932427,0.034592476,0.9992146,0.69734275,0.7157159,-0.038261976,0.7164774,-0.69753444,0.01029158,0.42377369384765623,0.086191259765625,11.18571015625,2.7428973,0.7948997,126.771645,0.030517578
-0.08073813180981403,0.010791730489430587,-0.002264931090374321,-0.0806282,0.009056392,-0.0030043644,0.01932427,0.034592476,0.9992146,0.69734275,0.7157159,-0.038261976,0.7164774,-0.69753444,0.01029158,0.3711012573242187,0.062249243164062495,11.264718811035156,2.7542224,0.7948997,127.11542,0.030517578
-0.07873966320066021,0.007727411955394742,-0.0009326186842717792,-0.0806282,0.009056392,-0.0030043644,0.01932427,0.034592476,0.9992146,0.69734275,0.7157159,-0.038261976,0.7164774,-0.69753444,0.01029158,0.373495458984375,0.1484405029296875,11.18571015625,2.7656205,0.7948997,127.45678,0.030517578
-0.08220367545652682,0.008793261880276773,-0.004529862180748642,-0.0806282,0.009056392,-0.0030043644,0.01932427,0.034592476,0.9992146,0.69734275,0.7157159,-0.038261976,0.7164774,-0.69753444,0.01029158,0.40462008056640625,0.0,11.204863769531249,2.777919,0.7948997,127.797356,0.030395508
-0.08047166932859352,0.010658499248820334,-0.004929555902579405,-0.0806282,0.009056392,-0.0030043644,0.01932427,0.034592476,0.9992146,0.69734275,0.7157159,-0.038261976,0.7164774,-0.69753444,0.01029158,0.38307226562499996,0.105344873046875,11.2240173828125,2.7895627,0.7948997,128.13852,0.030395508
-0.0814042880128653,0.01212404289553313,-0.0013323124061025418,-0.0806282,0.009056392,-0.0030043644,0.01932427,0.034592476,0.9992146,0.69734275,0.7157159,-0.038261976,0.7164774,-0.69753444,0.01029158,0.3902548706054687,0.11731588134765625,11.221623181152344,2.8017106,0.7948997,128.48782,0.03112793
-0.08193721297530632,0.011058192970651094,-0.0009326186842717792,-0.0806282,0.009056392,-0.0030043644,0.01932427,0.034592476,0.9992146,0.69734275,0.7157159,-0.038261976,0.7164774,-0.69753444,0.01029158,0.373495458984375,0.055066638183593745,11.219228979492186,2.8131087,0.7948997,128.8302,0.030517578
-0.07993874436615249,0.008260336917835759,-0.0031975497746461,-0.0806282,0.009056392,-0.0030043644,0.01932427,0.034592476,0.9992146,0.69734275,0.7157159,-0.038261976,0.7164774,-0.69753444,0.01029158,0.3758896606445312,0.023942016601562498,11.264718811035156,2.824534,0.7948997,129.17259,0.030395508
