GyroX,GyroY,GyroZ,NoiseX,NoiseY,NoiseZ,ExpGravityX,ExpGravityY,ExpGravityZ,ExpOxX,ExpOxY,ExpOxZ,ExpOyX,ExpOyY,ExpOyZ,AccX,AccY,AccZ,ExpSpeedX,ExpSpeedY,ExpSpeedZ,dT
-0.07953905064432175,0.0127901990985844,0.0010658499248820332,-0.07526766,0.0150804445,-0.0030110267,0.034773152,0.008555281,0.99935865,0.99939525,-0.00029767412,-0.03477188,0.0,-0.99996334,0.008560457,0.3806780639648437,0.06464344482421874,11.262324609375,0.0019836663,0.0,0.05868658,0.0052108765
-0.08247013793774732,0.010125574286379316,-0.0002664624812205083,-0.07526766,0.0150804445,-0.0030110267,0.034773152,0.008555281,0.99935865,0.99939525,-0.00029767412,-0.03477188,0.0,-0.9999634,0.008560458,0.4213794921875,0.11731588134765625,11.250353601074218,0.0048545455,0.0,0.13533579,0.0068130493
-0.0834027566220191,0.007194486992953725,-0.0019984686091538122,-0.07526766,0.0150804445,-0.0030110267,0.034773152,0.008555281,0.99935865,0.99939525,-0.00029767412,-0.03477188,0.0,-0.9999634,0.008560458,0.3687070556640625,0.06703764648437499,11.247959399414063,0.0073693777,0.0,0.2120545,0.0068206787
-0.07900612568188072,0.012257274136143382,-0.001732006127933304,-0.07526766,0.0150804445,-0.0030110267,0.034773152,0.008555281,0.99935865,0.99939525,-0.00029767412,-0.03477188,0.0,-0.9999634,0.008560458,0.38307226562499996,0.06943184814453125,11.274295617675781,0.009941274,0.0,0.28774863,0.006713867
-0.07860643196004995,0.012923430339194655,0.0011990811654922875,-0.07526766,0.0150804445,-0.0030110267,0.034773152,0.008555281,0.99935865,0.99939525,-0.00029767412,-0.03477188,0.0,-0.9999634,0.008560458,0.4165910888671875,0.05985504150390625,11.195286962890624,0.012757282,0.0,0.36342478,0.0067596436
-0.08153751925347555,0.011324655451871604,-0.005062787143189658,-0.07526766,0.0150804445,-0.0030110267,0.034773152,0.008555281,0.99935865,0.99939525,-0.00029767412,-0.03477188,0.0,-0.9999634,0.008560458,0.4165910888671875,0.033518823242187495,11.197681164550781,0.015563754,0.0,0.4388608,0.0067367554
-0.08380245034384987,0.00985911180515881,-0.0030643185340358454,-0.07526766,0.0150804445,-0.0030110267,0.034773152,0.008555281,0.99935865,0.99939525,-0.00029767412,-0.03477188,0.0,-0.9999634,0.008560458,0.3687070556640625,0.1149216796875,11.156979736328124,0.018039204,0.0,0.5137673,0.006713867
-0.07780704451638844,0.0075941807147844875,-0.000799387443661525,-0.07526766,0.0150804445,-0.0030110267,0.034773152,0.008555281,0.99935865,0.99939525,-0.00029767412,-0.03477188,0.0,-0.9999634,0.008560458,0.3902548706054687,0.09337386474609374,11.219228979492186,0.020671234,0.0,0.5894341,0.0067443848
-0.07967228188493199,0.014788667707738212,-0.0006661562030512709,-0.07526766,0.0150804445,-0.0030110267,0.034773152,0.008555281,0.99935865,0.99939525,-0.00029767412,-0.03477188,0.0,-0.9999634,0.008560458,0.4070142822265625,0.09576806640624999,11.200075366210937,0.023391452,0.0,0.6642881,0.0066833496
-0.07847320071943971,0.011191424211261349,-0.002398162330984575,-0.07526766,0.0150804445,-0.0030110267,0.034773152,0.008555281,0.99935865,0.99939525,-0.00029767412,-0.03477188,0.0,-0.9999634,0.008560458,0.3495534423828125,0.08858546142578125,11.267113012695312,0.025506288,0.0,0.7324554,0.00605011
-0.07873966320066021,0.01185758041431262,-0.0029310872934255917,-0.07526766,0.0150804445,-0.0030110267,0.034773152,0.008555281,0.99935865,0.99939525,-0.00029767412,-0.03477188,0.0,-0.9999634,0.008560458,0.4333505004882812,0.07900865478515624,11.221623181152344,0.028154556,0.0,0.80103236,0.006111145
-0.07847320071943971,0.011724349173702367,-0.00159877488732305,-0.07526766,0.0150804445,-0.0030110267,0.034773152,0.008555281,0.99935865,0.99939525,-0.00029767412,-0.03477188,0.0,-0.9999634,0.008560458,0.3687070556640625,0.143652099609375,11.156979736328124,0.030396527,0.0,0.8688738,0.0060806274
-0.08087136305042428,0.010658499248820334,-0.0035972434964768626,-0.07526766,0.0150804445,-0.0030110267,0.034773152,0.008555281,0.99935865,0.99939525,-0.00029767412,-0.03477188,0.0,-0.9999634,0.008560458,0.43574470214843747,0.047884033203124995,11.233594189453123,0.033042803,0.0,0.93709534,0.006072998
-0.0816707504940858,0.010125574286379316,-0.004130168458917879,-0.07526766,0.0150804445,-0.0030110267,0.034773152,0.008555281,0.99935865,0.99939525,-0.00029767412,-0.03477188,0.0,-0.9999634,0.008560458,0.32082302246093747,0.08858546142578125,11.228805786132812,0.034993608,0.0,1.0053735,0.0060806274
-0.07887289444127048,0.013856049023466432,-0.002797856052815337,-0.07526766,0.0150804445,-0.0030110267,0.034773152,0.008555281,0.99935865,0.99939525,-0.00029767412,-0.03477188,0.0,-0.9999634,0.008560458,0.40940848388671874,0.11013327636718749,11.2240173828125,0.037476823,0.0,1.0734513,0.0060653687
-0.08087136305042428,0.01052526800821008,-0.0026646248122050836,-0.07526766,0.0150804445,-0.0030110267,0.034773152,0.008555281,0.99935865,0.99939525,-0.00029767412,-0.03477188,0.0,-0.9999634,0.008560458,0.4165910888671875,0.1149216796875,11.29344923095703,0.04000678,0.0,1.1420363,0.006072998
-0.07953905064432175,0.010125574286379316,-0.0030643185340358454,-0.07526766,0.0150804445,-0.0030110267,0.034773152,0.008555281,0.99935865,0.99939525,-0.00029767412,-0.03477188,0.0,-0.9999634,0.008560458,0.38307226562499996,0.076614453125,11.29344923095703,0.04232733,0.0,1.2104491,0.0060577393
-0.07900612568188072,0.004529862180748642,-0.0031975497746461,-0.07526766,0.0150804445,-0.0030110267,0.034773152,0.008555281,0.99935865,0.99939525,-0.00029767412,-0.03477188,0.0,-0.9999634,0.008560458,0.3902548706054687,0.06464344482421874,11.200075366210937,0.044694368,0.0,1.2783817,0.0060653687
-0.07727411955394742,0.011591117933092112,-0.001732006127933304,-0.07526766,0.0150804445,-0.0030110267,0.034773152,0.008555281,0.99935865,0.99939525,-0.00029767412,-0.03477188,0.0,-0.9999634,0.008560458,0.3950432739257812,0.0909796630859375,11.250353601074218,0.047114562,0.0,1.3473059,0.006126404
-0.07887289444127048,0.008793261880276773,-0.00479632466196915,-0.07526766,0.0150804445,-0.0030110267,0.034773152,0.008555281,0.99935865,0.99939525,-0.00029767412,-0.03477188,0.0,-0.9999634,0.008560458,0.43574470214843747,0.08140285644531249,11.207257971191405,0.04980073,0.0,1.4163936,0.006164551
-0.08033843808798326,0.010924961730040842,-0.00159877488732305,-0.07526766,0.0150804445,-0.0030110267,0.034773152,0.008555281,0.99935865,0.99939525,-0.00029767412,-0.03477188,0.0,-0.9999634,0.008560458,0.3495534423828125,0.076614453125,11.180921752929686,0.05195024,0.0,1.4851484,0.006149292
-0.08087136305042428,0.006261868308681946,-0.00013323124061025415,-0.07526766,0.0150804445,-0.0030110267,0.034773152,0.008555281,0.99935865,0.99939525,-0.00029767412,-0.03477188,0.0,-0.9999634,0.008560458,0.3950432739257812,0.06943184814453125,11.197681164550781,0.054394543,0.0,1.5544333,0.006187439
-0.08127105677225505,0.012923430339194655,-0.0003996937218307625,-0.07526766,0.0150804445,-0.0030110267,0.034773152,0.008555281,0.99935865,0.99939525,-0.00029767412,-0.03477188,0.0,-0.9999634,0.008560458,0.4070142822265625,0.05985504150390625,11.259930407714844,0.056906708,0.0,1.6239316,0.00617218
-0.07860643196004995,0.008393568158446012,-0.0010658499248820332,-0.07526766,0.0150804445,-0.0030110267,0.034773152,0.008555281,0.99935865,0.99939525,-0.00029767412,-0.03477188,0.0,-0.9999634,0.008560458,0.4333505004882812,0.10295067138671875,11.180921752929686,0.059756655,0.0,1.6974634,0.006576538
-0.07967228188493199,0.006928024511733216,-0.0030643185340358454,-0.07526766,0.0150804445,-0.0030110267,0.034773152,0.008555281,0.99935865,0.99939525,-0.00029767412,-0.03477188,0.0,-0.9999634,0.008560458,0.40940848388671874,0.1005564697265625,11.164162341308593,0.062280476,0.0,1.7662854,0.006164551
-0.08100459429103453,0.010658499248820334,0.0005329249624410166,-0.07526766,0.0150804445,-0.0030110267,0.034773152,0.008555281,0.99935865,0.99939525,-0.00029767412,-0.03477188,0.0,-0.9999634,0.008560458,0.36391865234375,0.10295067138671875,11.259930407714844,0.06451832,0.0,1.835526,0.006149292
-0.0816707504940858,0.009326186842717792,-0.005196018383799912,-0.07526766,0.0150804445,-0.0030110267,0.034773152,0.008555281,0.99935865,0.99939525,-0.00029767412,-0.03477188,0.0,-0.9999634,0.008560458,0.3758896606445312,0.086191259765625,11.173739147949219,0.0668269,0.0,1.9041513,0.0061416626
-0.07940581940371148,0.008793261880276773,-0.002797856052815337,-0.07526766,0.0150804445,-0.0030110267,0.034773152,0.008555281,0.99935865,0.99939525,-0.00029767412,-0.03477188,0.0,-0.9999634,0.008560458,0.3902548706054687,0.1388636962890625,11.247959399414063,0.06923562,0.0,1.9735757,0.00617218
-0.08300306290018834,0.010392036767599824,-0.005595712105630674,-0.07526766,0.0150804445,-0.0030110267,0.034773152,0.008555281,0.99935865,0.99939525,-0.00029767412,-0.03477188,0.0,-0.9999634,0.008560458,0.45968671875,0.06943184814453125,11.207257971191405,0.07206237,0.0,2.0424924,0.006149292
-0.07887289444127048,0.01185758041431262,-0.004929555902579405,-0.07526766,0.0150804445,-0.0030110267,0.034773152,0.008555281,0.99935865,0.99939525,-0.00029767412,-0.03477188,0.0,-0.9999634,0.008560458,0.3758896606445312,0.07900865478515624,11.152191333007812,0.07433368,0.0,2.1098793,0.0060424805
-0.08007197560676275,0.010125574286379316,-0.0006661562030512709,-0.07526766,0.0150804445,-0.0030110267,0.034773152,0.008555281,0.99935865,0.99939525,-0.00029767412,-0.03477188,0.0,-0.9999634,0.008560458,0.45010991210937495,0.11731588134765625,11.267113012695312,0.077053465,0.0,2.1779606,0.0060424805
-0.08100459429103453,0.0127901990985844,-0.0010658499248820332,-0.07526766,0.0150804445,-0.0030110267,0.034773152,0.008555281,0.99935865,0.99939525,-0.00029767412,-0.03477188,0.0,-0.9999634,0.008560458,0.35673604736328124,0.08379705810546874,11.228805786132812,0.07920631,0.0,2.245725,0.006034851
-0.08047166932859352,0.01212404289553313,-0.0011990811654922875,-0.07526766,0.0150804445,-0.0030110267,0.034773152,0.008555281,0.99935865,0.99939525,-0.00029767412,-0.03477188,0.0,-0.9999634,0.008560458,0.44053310546874996,0.12689268798828124,11.279084020996093,0.081881665,0.0,2.3142228,0.006072998
-0.07767381327577817,0.008793261880276773,-0.0031975497746461,-0.07526766,0.0150804445,-0.0030110267,0.034773152,0.008555281,0.99935865,0.99939525,-0.00029767412,-0.03477188,0.0,-0.9999634,0.008560458,0.35673604736328124,0.08858546142578125,11.238382592773437,0.08403451,0.0,2.3820448,0.006034851
-0.07820673823821919,0.010924961730040842,-0.002398162330984575,-0.07526766,0.0150804445,-0.0030110267,0.034773152,0.008555281,0.99935865,0.99939525,-0.00029767412,-0.03477188,0.0,-0.9999634,0.008560458,0.33518823242187495,0.1149216796875,11.291055029296874,0.086059876,0.0,2.4502707,0.0060424805
-0.08180398173469605,0.01052526800821008,-0.0021316998497640663,-0.07526766,0.0150804445,-0.0030110267,0.034773152,0.008555281,0.99935865,0.99939525,-0.00029767412,-0.03477188,0.0,-0.9999634,0.008560458,0.3758896606445312,0.09576806640624999,11.202469567871093,0.088331185,0.0,2.5179613,0.0060424805
-0.07873966320066021,0.0095926493239383,0.0009326186842717792,-0.07526766,0.0150804445,-0.0030110267,0.034773152,0.008555281,0.99935865,0.99939525,-0.00029767412,-0.03477188,0.0,-0.9999634,0.008560458,0.3806780639648437,0.1005564697265625,11.228805786132812,0.09062852,0.0,2.5857255,0.006034851
-0.08446860654690114,0.0095926493239383,-0.000799387443661525,-0.07526766,0.0150804445,-0.0030110267,0.034773152,0.008555281,0.99935865,0.99939525,-0.00029767412,-0.03477188,0.0,-0.9999634,0.008560458,0.3232172241210937,0.10295067138671875,11.145008728027342,0.09258895,0.0,2.6533241,0.0060653687
-0.08286983165957809,0.01185758041431262,-0.003863705977697371,-0.07526766,0.0150804445,-0.0030110267,0.034773152,0.008555281,0.99935865,0.99939525,-0.00029767412,-0.03477188,0.0,-0.9999634,0.008560458,0.3854664672851562,0.08858546142578125,11.238382592773437,0.09497988,0.0,2.7230325,0.0062026978
-0.08113782553164478,0.011990811654922875,-0.002398162330984575,-0.07526766,0.0150804445,-0.0030110267,0.034773152,0.008555281,0.99935865,0.99939525,-0.00029767412,-0.03477188,0.0,-0.9999634,0.008560458,0.3806780639648437,0.105344873046875,11.231199987792968,0.09748924,0.0,2.7970662,0.006591797
-0.07967228188493199,0.009326186842717792,-0.002797856052815337,-0.07526766,0.0150804445,-0.0030110267,0.034773152,0.008555281,0.99935865,0.99939525,-0.00029767412,-0.03477188,0.0,-0.9999634,0.008560458,0.3687070556640625,0.05746083984375,11.269507214355468,0.099767774,0.0,2.8667097,0.0061798096
-0.08033843808798326,0.008793261880276773,-0.0033307810152563544,-0.07526766,0.0150804445,-0.0030110267,0.034773152,0.008555281,0.99935865,0.99939525,-0.00029767412,-0.03477188,0.0,-0.9999634,0.008560458,0.33758243408203126,0.0909796630859375,11.21683477783203,0.10184109,0.0,2.9355998,0.0061416626
-0.07847320071943971,0.012656967857974145,-0.0006661562030512709,-0.07526766,0.0150804445,-0.0030110267,0.034773152,0.008555281,0.99935865,0.99939525,-0.00029767412,-0.03477188,0.0,-0.9999634,0.008560458,0.4261678955078125,0.047884033203124995,11.233594189453123,0.10446172,0.0,3.0046785,0.006149292
-0.08007197560676275,0.012257274136143382,-0.002264931090374321,-0.07526766,0.0150804445,-0.0030110267,0.034773152,0.008555281,0.99935865,0.99939525,-0.00029767412,-0.03477188,0.0,-0.9999634,0.008560458,0.411802685546875,0.062249243164062495,11.192892761230468,0.106990874,0.0,3.0734215,0.0061416626
-0.07860643196004995,0.011990811654922875,-0.0026646248122050836,-0.07526766,0.0150804445,-0.0030110267,0.034773152,0.008555281,0.99935865,0.99939525,-0.00029767412,-0.03477188,0.0,-0.9999634,0.008560458,0.35673604736328124,0.12689268798828124,11.252747802734374,0.109189995,0.0,3.1427896,0.006164551
-0.07940581940371148,0.009725880564548555,-0.0003996937218307625,-0.07526766,0.0150804445,-0.0030110267,0.034773152,0.008555281,0.99935865,0.99939525,-0.00029767412,-0.03477188,0.0,-0.9999634,0.008560458,0.3711012573242187,0.15562310791015624,11.21683477783203,0.11146917,0.0,3.2116797,0.0061416626
-0.07980551312554225,0.01372281778285618,-0.00013323124061025415,-0.07526766,0.0150804445,-0.0030110267,0.034773152,0.008555281,0.99935865,0.99939525,-0.00029767412,-0.03477188,0.0,-0.9999634,0.008560458,0.40940848388671874,0.09816226806640624,11.21683477783203,0.11399299,0.0,3.2808263,0.006164551
-0.08060490056920376,0.010791730489430587,-0.0014655436467127959,-0.07526766,0.0150804445,-0.0030110267,0.034773152,0.008555281,0.99935865,0.99939525,-0.00029767412,-0.03477188,0.0,-0.9999634,0.008560458,0.3591302490234375,0.10295067138671875,11.226411584472656,0.116209604,0.0,3.3501177,0.00617218
-0.08113782553164478,0.009192955602107537,-0.002398162330984575,-0.07526766,0.0150804445,-0.0030110267,0.034773152,0.008555281,0.99935865,0.99939525,-0.00029767412,-0.03477188,0.0,-0.9999634,0.008560458,0.3854664672851562,0.1005564697265625,11.164162341308593,0.118588775,0.0,3.419025,0.00617218
-0.08060490056920376,0.010392036767599824,-0.0019984686091538122,-0.07526766,0.0150804445,-0.0030110267,0.034773152,0.008555281,0.99935865,0.99939525,-0.00029767412,-0.03477188,0.0,-0.9999634,0.008560458,0.3232172241210937,0.062249243164062495,11.180921752929686,0.12057633,0.0,3.4877796,0.006149292
-0.07860643196004995,0.0095926493239383,-0.0011990811654922875,-0.07526766,0.0150804445,-0.0030110267,0.034773152,0.008555281,0.99935865,0.99939525,-0.00029767412,-0.03477188,0.0,-0.9999634,0.008560458,0.44053310546874996,0.12449848632812499,11.176133349609374,0.12328193,0.0,3.5564196,0.0061416626
-0.08033843808798326,0.010125574286379316,-0.0018652373685435584,-0.07526766,0.0150804445,-0.0030110267,0.034773152,0.008555281,0.99935865,0.99939525,-0.00029767412,-0.03477188,0.0,-0.9999634,0.008560458,0.4261678955078125,0.11013327636718749,11.243170996093749,0.12589931,0.0,3.6254714,0.0061416626
-0.08193721297530632,0.009725880564548555,-0.002797856052815337,-0.07526766,0.0150804445,-0.0030110267,0.034773152,0.008555281,0.99935865,0.99939525,-0.00029767412,-0.03477188,0.0,-0.9999634,0.008560458,0.3854664672851562,0.105344873046875,11.307814440917968,0.12826966,0.0,3.6950064,0.006149292
-0.07274425737319877,0.0074609494741742334,-0.003863705977697371,-0.07526766,0.0150804445,-0.0030110267,0.034773152,0.008555281,0.99935865,0.99939525,-0.00029767412,-0.03477188,0.0,-0.9999634,0.008560458,0.3854664672851562,0.06464344482421874,11.188104357910156,0.13064295,0.0,3.7638907,0.0061569214
-0.07967228188493199,0.00866003063966652,-0.0033307810152563544,-0.07526766,0.0150804445,-0.0030110267,0.034773152,0.008555281,0.99935865,0.99939525,-0.00029767412,-0.03477188,0.0,-0.9999634,0.008560458,0.39264907226562495,0.15562310791015624,11.288660827636718,0.13305447,0.0,3.833222,0.0061416626
-0.08207044421591657,0.012923430339194655,-0.006528330789902454,-0.07526766,0.0150804445,-0.0030110267,0.034773152,0.008555281,0.99935865,0.99939525,-0.00029767412,-0.03477188,0.0,-0.9999634,0.008560458,0.4213794921875,0.1197100830078125,11.240776794433593,0.13564886,0.0,3.9024305,0.0061569214
-0.07714088831333717,0.0073277182335639785,-0.0035972434964768626,-0.07526766,0.0150804445,-0.0030110267,0.034773152,0.008555281,0.99935865,0.99939525,-0.00029767412,-0.03477188,0.0,-0.9999634,0.008560458,0.3495534423828125,0.15322890625,11.276689819335937,0.13779837,0.0,3.971774,0.006149292
-0.0814042880128653,0.007860643196004996,-0.0033307810152563544,-0.07526766,0.0150804445,-0.0030110267,0.034773152,0.008555281,0.99935865,0.99939525,-0.00029767412,-0.03477188,0.0,-0.9999634,0.008560458,0.4213794921875,0.040701428222656245,11.168950744628905,0.14038634,0.0,4.04037,0.0061416626
-0.08060490056920376,0.014255742745297196,-0.0033307810152563544,-0.07526766,0.0150804445,-0.0030110267,0.034773152,0.008555281,0.99935865,0.99939525,-0.00029767412,-0.03477188,0.0,-0.9999634,0.008560458,0.43574470214843747,0.08858546142578125,11.274295617675781,0.14307252,0.0,4.109871,0.006164551
-0.08073813180981403,0.013589586542245924,-0.0035972434964768626,-0.07526766,0.0150804445,-0.0030110267,0.034773152,0.008555281,0.99935865,0.99939525,-0.00029767412,-0.03477188,0.0,-0.9999634,0.008560458,0.36152445068359373,0.09576806640624999,11.2240173828125,0.14529563,0.0,4.1788907,0.006149292
-0.07927258816310122,0.006928024511733216,-0.002797856052815337,-0.07526766,0.0150804445,-0.0030110267,0.034773152,0.008555281,0.99935865,0.99939525,-0.00029767412,-0.03477188,0.0,-0.9999634,0.008560458,0.3806780639648437,0.08379705810546874,11.343727465820312,0.14763072,0.0,4.2484736,0.006134033
-0.07727411955394742,0.011324655451871604,-0.004130168458917879,-0.07526766,0.0150804445,-0.0030110267,0.034773152,0.008555281,0.99935865,0.99939525,-0.00029767412,-0.03477188,0.0,-0.9999634,0.008560458,0.39983167724609375,0.07900865478515624,11.195286962890624,0.1500894,0.0,4.3173165,0.006149292
-0.07900612568188072,0.008393568158446012,-0.002398162330984575,-0.07526766,0.0150804445,-0.0030110267,0.034773152,0.008555281,0.99935865,0.99939525,-0.00029767412,-0.03477188,0.0,-0.9999634,0.008560458,0.32082302246093747,0.06703764648437499,11.204863769531249,0.15205978,0.0,4.386133,0.0061416626
-0.08153751925347555,0.01185758041431262,-0.0011990811654922875,-0.07526766,0.0150804445,-0.0030110267,0.034773152,0.008555281,0.99935865,0.99939525,-0.00029767412,-0.03477188,0.0,-0.9999634,0.008560458,0.34715924072265625,0.11013327636718749,11.21683477783203,0.15418926,0.0,4.4549375,0.006134033
-0.08247013793774732,0.008393568158446012,-0.004529862180748642,-0.07526766,0.0150804445,-0.0030110267,0.034773152,0.008555281,0.99935865,0.99939525,-0.00029767412,-0.03477188,0.0,-0.9999634,0.008560458,0.3806780639648437,0.062249243164062495,11.291055029296874,0.15652725,0.0,4.5242834,0.0061416626
-0.0834027566220191,0.010924961730040842,-0.0031975497746461,-0.07526766,0.0150804445,-0.0030110267,0.034773152,0.008555281,0.99935865,0.99939525,-0.00029767412,-0.03477188,0.0,-0.9999634,0.008560458,0.42377369384765623,0.09337386474609374,11.240776794433593,0.15912347,0.0,4.593149,0.006126404
-0.07953905064432175,0.009992343045769061,-0.0011990811654922875,-0.07526766,0.0150804445,-0.0030110267,0.034773152,0.008555281,0.99935865,0.99939525,-0.00029767412,-0.03477188,0.0,-0.9999634,0.008560458,0.36152445068359373,0.11252747802734374,11.245565197753905,0.16136865,0.0,4.6629877,0.006210327
-0.08127105677225505,0.012523736617363892,-0.0019984686091538122,-0.07526766,0.0150804445,-0.0030110267,0.034773152,0.008555281,0.99935865,0.99939525,-0.00029767412,-0.03477188,0.0,-0.9999634,0.008560458,0.3758896606445312,0.06703764648437499,11.159373937988281,0.1636801,0.0,4.73161,0.006149292
-0.07820673823821919,0.012257274136143382,-0.0019984686091538122,-0.07526766,0.0150804445,-0.0030110267,0.034773152,0.008555281,0.99935865,0.99939525,-0.00029767412,-0.03477188,0.0,-0.9999634,0.008560458,0.3758896606445312,0.09576806640624999,11.274295617675781,0.16598582,0.0,4.800767,0.006134033
-0.08060490056920376,0.011324655451871604,-0.002531393571594829,-0.07526766,0.0150804445,-0.0030110267,0.034773152,0.008555281,0.99935865,0.99939525,-0.00029767412,-0.03477188,0.0,-0.9999634,0.008560458,0.39264907226562495,0.1388636962890625,11.240776794433593,0.16839734,0.0,4.869804,0.0061416626
-0.07980551312554225,0.010658499248820334,-0.0010658499248820332,-0.07526766,0.0150804445,-0.0030110267,0.034773152,0.008555281,0.99935865,0.99939525,-0.00029767412,-0.03477188,0.0,-0.9999634,0.008560458,0.3112462158203125,0.04548983154296875,11.247959399414063,0.17030653,0.0,4.9387994,0.006134033
-0.08087136305042428,0.008926493120887028,-0.002264931090374321,-0.07526766,0.0150804445,-0.0030110267,0.034773152,0.008555281,0.99935865,0.99939525,-0.00029767412,-0.03477188,0.0,-0.9999634,0.008560458,0.3902548706054687,0.1149216796875,11.168950744628905,0.17271526,0.0,5.007736,0.00617218
-0.08273660041896783,0.006128637068071691,-0.002264931090374321,-0.07526766,0.0150804445,-0.0030110267,0.034773152,0.008555281,0.99935865,0.99939525,-0.00029767412,-0.03477188,0.0,-0.9999634,0.008560458,0.49799394531249996,0.1292868896484375,11.238382592773437,0.17577377,0.0,5.0767584,0.0061416626
-0.07953905064432175,0.0127901990985844,-0.004130168458917879,-0.07526766,0.0150804445,-0.0030110267,0.034773152,0.008555281,0.99935865,0.99939525,-0.00029767412,-0.03477188,0.0,-0.9999634,0.008560458,0.373495458984375,0.1005564697265625,11.235988391113281,0.17806481,0.0,5.1456804,0.006134033
-0.07940581940371148,0.008393568158446012,-0.0014655436467127959,-0.07526766,0.0150804445,-0.0030110267,0.034773152,0.008555281,0.99935865,0.99939525,-0.00029767412,-0.03477188,0.0,-0.9999634,0.008560458,0.40462008056640625,0.105344873046875,11.214440576171874,0.18056528,0.0,5.2149835,0.0061798096
-0.08180398173469605,0.01185758041431262,-0.0029310872934255917,-0.07526766,0.0150804445,-0.0030110267,0.034773152,0.008555281,0.99935865,0.99939525,-0.00029767412,-0.03477188,0.0,-0.9999634,0.008560458,0.39264907226562495,0.09337386474609374,11.212046374511718,0.18298578,0.0,5.2841005,0.006164551
-0.07887289444127048,0.007727411955394742,-0.002264931090374321,-0.07526766,0.0150804445,-0.0030110267,0.034773152,0.008555281,0.99935865,0.99939525,-0.00029767412,-0.03477188,0.0,-0.9999634,0.008560458,0.3064578125,0.11013327636718749,11.202469567871093,0.18488899,0.0,5.3536716,0.006210327
-0.08060490056920376,0.009992343045769061,0.0013323124061025418,-0.07526766,0.0150804445,-0.0030110267,0.034773152,0.008555281,0.99935865,0.99939525,-0.00029767412,-0.03477188,0.0,-0.9999634,0.008560458,0.3758896606445312,0.06943184814453125,11.252747802734374,0.18719758,0.0,5.422782,0.0061416626
-0.0814042880128653,0.012923430339194655,-0.0019984686091538122,-0.07526766,0.0150804445,-0.0030110267,0.034773152,0.008555281,0.99935865,0.99939525,-0.00029767412,-0.03477188,0.0,-0.9999634,0.008560458,0.45968671875,0.143652099609375,11.161768139648437,0.19002081,0.0,5.491334,0.0061416626
-0.0814042880128653,0.00866003063966652,-0.002398162330984575,-0.07526766,0.0150804445,-0.0030110267,0.034773152,0.008555281,0.99935865,0.99939525,-0.00029767412,-0.03477188,0.0,-0.9999634,0.008560458,0.3806780639648437,0.09337386474609374,11.235988391113281,0.1923588,0.0,5.560342,0.0061416626
-0.080205206847373,0.010791730489430587,-0.0011990811654922875,-0.07526766,0.0150804445,-0.0030110267,0.034773152,0.008555281,0.99935865,0.99939525,-0.00029767412,-0.03477188,0.0,-0.9999634,0.008560458,0.430956298828125,0.13646949462890623,11.207257971191405,0.19500889,0.0,5.6292586,0.006149292
-0.0816707504940858,0.013589586542245924,0.0009326186842717792,-0.07526766,0.0150804445,-0.0030110267,0.034773152,0.008555281,0.99935865,0.99939525,-0.00029767412,-0.03477188,0.0,-0.9999634,0.008560458,0.3591302490234375,0.11013327636718749,11.21683477783203,0.1972118,0.0,5.698063,0.006134033
-0.08286983165957809,0.012523736617363892,-0.003863705977697371,-0.07526766,0.0150804445,-0.0030110267,0.034773152,0.008555281,0.99935865,0.99939525,-0.00029767412,-0.03477188,0.0,-0.9999634,0.008560458,0.373495458984375,0.1149216796875,11.207257971191405,0.19951993,0.0,5.7673216,0.0061798096
-0.07953905064432175,0.010791730489430587,-0.005595712105630674,-0.07526766,0.0150804445,-0.0030110267,0.034773152,0.008555281,0.99935865,0.99939525,-0.00029767412,-0.03477188,0.0,-0.9999634,0.008560458,0.3758896606445312,0.11731588134765625,11.17852755126953,0.20183426,0.0,5.836147,0.0061569214
-0.07540888218540386,0.009725880564548555,0.00013323124061025415,-0.07526766,0.0150804445,-0.0030110267,0.034773152,0.008555281,0.99935865,0.99939525,-0.00029767412,-0.03477188,0.0,-0.9999634,0.008560458,0.4429273071289062,0.0526724365234375,11.212046374511718,0.20456132,0.0,5.9051785,0.0061569214
-0.07820673823821919,0.01345635530163567,-0.002531393571594829,-0.07526766,0.0150804445,-0.0030110267,0.034773152,0.008555281,0.99935865,0.99939525,-0.00029767412,-0.03477188,0.0,-0.9999634,0.008560458,0.3950432739257812,0.076614453125,11.212046374511718,0.20700261,0.0,5.974467,0.0061798096
-0.07780704451638844,0.01185758041431262,-0.0010658499248820332,-0.07526766,0.0150804445,-0.0030110267,0.034773152,0.008555281,0.99935865,0.99939525,-0.00029767412,-0.03477188,0.0,-0.9999634,0.008560458,0.42377369384765623,0.05027823486328125,11.190498559570312,0.20982514,0.0,6.0490007,0.0066604614
-0.07940581940371148,0.010924961730040842,-0.004929555902579405,-0.07526766,0.0150804445,-0.0030110267,0.034773152,0.008555281,0.99935865,0.99939525,-0.00029767412,-0.03477188,0.0,-0.9999634,0.008560458,0.4070142822265625,0.1005564697265625,11.267113012695312,0.21234663,0.0,6.118801,0.0061950684
-0.07967228188493199,0.0073277182335639785,-0.002797856052815337,-0.07526766,0.0150804445,-0.0030110267,0.034773152,0.008555281,0.99935865,0.99939525,-0.00029767412,-0.03477188,0.0,-0.9999634,0.008560458,0.40462008056640625,0.11013327636718749,11.264718811035156,0.21482858,0.0,6.187899,0.006134033
-0.07887289444127048,0.007860643196004996,-0.003464012255866608,-0.07526766,0.0150804445,-0.0030110267,0.034773152,0.008555281,0.99935865,0.99939525,-0.00029767412,-0.03477188,0.0,-0.9999634,0.008560458,0.4070142822265625,0.11013327636718749,11.3006318359375,0.21732523,0.0,6.2572174,0.006134033
-0.07767381327577817,0.00985911180515881,-0.002264931090374321,-0.07526766,0.0150804445,-0.0030110267,0.034773152,0.008555281,0.99935865,0.99939525,-0.00029767412,-0.03477188,0.0,-0.9999634,0.008560458,0.39983167724609375,0.011971008300781249,11.183315954589844,0.21978086,0.0,6.3259015,0.0061416626
-0.08007197560676275,0.011457886692481857,-0.000799387443661525,-0.07526766,0.0150804445,-0.0030110267,0.034773152,0.008555281,0.99935865,0.99939525,-0.00029767412,-0.03477188,0.0,-0.9999634,0.008560458,0.354341845703125,0.09337386474609374,11.159373937988281,0.22195712,0.0,6.3944387,0.0061416626
-0.07953905064432175,0.0127901990985844,-0.004130168458917879,-0.07526766,0.0150804445,-0.0030110267,0.034773152,0.008555281,0.99935865,0.99939525,-0.00029767412,-0.03477188,0.0,-0.9999634,0.008560458,0.4213794921875,0.105344873046875,11.3006318359375,0.22454187,0.0,6.463757,0.006134033
-0.07913935692249098,0.009459418083328047,-0.004130168458917879,-0.07526766,0.0150804445,-0.0030110267,0.034773152,0.008555281,0.99935865,0.99939525,-0.00029767412,-0.03477188,0.0,-0.9999634,0.008560458,0.3902548706054687,0.09337386474609374,11.212046374511718,0.22694166,0.0,6.5327034,0.006149292
-0.07967228188493199,0.011990811654922875,-0.0009326186842717792,-0.07526766,0.0150804445,-0.0030110267,0.034773152,0.008555281,0.99935865,0.99939525,-0.00029767412,-0.03477188,0.0,-0.9999634,0.008560458,0.411802685546875,0.06943184814453125,11.145008728027342,0.22948967,0.0,6.6016626,0.006187439
-0.07953905064432175,0.012656967857974145,-0.0018652373685435584,-0.07526766,0.0150804445,-0.0030110267,0.034773152,0.008555281,0.99935865,0.99939525,-0.00029767412,-0.03477188,0.0,-0.9999634,0.008560458,0.35673604736328124,0.086191259765625,11.21683477783203,0.23168607,0.0,6.670724,0.0061569214
-0.07887289444127048,0.00985911180515881,-0.0003996937218307625,-0.07526766,0.0150804445,-0.0030110267,0.034773152,0.008555281,0.99935865,0.99939525,-0.00029767412,-0.03477188,0.0,-0.9999634,0.008560458,0.3950432739257812,0.09337386474609374,11.212046374511718,0.23407914,0.0,6.7386436,0.0060577393
-0.08180398173469605,0.012390505376753637,-0.000799387443661525,-0.07526766,0.0150804445,-0.0030110267,0.034773152,0.008555281,0.99935865,0.99939525,-0.00029767412,-0.03477188,0.0,-0.9999634,0.008560458,0.41898529052734373,0.12449848632812499,11.279084020996093,0.23660126,0.0,6.806539,0.0060195923
-0.08233690669713707,0.01185758041431262,-0.0021316998497640663,-0.07526766,0.0150804445,-0.0030110267,0.034773152,0.008555281,0.99935865,0.99939525,-0.00029767412,-0.03477188,0.0,-0.9999634,0.008560458,0.39264907226562495,0.09816226806640624,11.21683477783203,0.23898582,0.0,6.874659,0.006072998
-0.08100459429103453,0.010658499248820334,0.00013323124061025415,-0.07526766,0.0150804445,-0.0030110267,0.034773152,0.008555281,0.99935865,0.99939525,-0.00029767412,-0.03477188,0.0,-0.9999634,0.008560458,0.37828386230468747,0.08858546142578125,11.238382592773437,0.24126871,0.0,6.942481,0.006034851
-0.08060490056920376,0.010258805526989571,-0.0029310872934255917,-0.07526766,0.0150804445,-0.0030110267,0.034773152,0.008555281,0.99935865,0.99939525,-0.00029767412,-0.03477188,0.0,-0.9999634,0.008560458,0.3280056274414062,0.1292868896484375,11.307814440917968,0.24324818,0.0,7.010722,0.006034851
-0.07940581940371148,0.01212404289553313,-0.0006661562030512709,-0.07526766,0.0150804445,-0.0030110267,0.034773152,0.008555281,0.99935865,0.99939525,-0.00029767412,-0.03477188,0.0,-0.9999634,0.008560458,0.4285620971679687,0.11013327636718749,11.262324609375,0.24584757,0.0,7.0790324,0.0060653687
-0.08007197560676275,0.009725880564548555,-0.0026646248122050836,-0.07526766,0.0150804445,-0.0030110267,0.034773152,0.008555281,0.99935865,0.99939525,-0.00029767412,-0.03477188,0.0,-0.9999634,0.008560458,0.40940848388671874,0.05027823486328125,11.3006318359375,0.2485057,0.0,7.152403,0.0064926147
-0.0814042880128653,0.008793261880276773,0.00013323124061025415,-0.07526766,0.0150804445,-0.0030110267,0.034773152,0.008555281,0.99935865,0.99939525,-0.00029767412,-0.03477188,0.0,-0.9999634,0.008560458,0.41898529052734373,0.10773907470703124,11.305420239257812,0.25105658,0.0,7.2212334,0.006088257
-0.08193721297530632,0.012656967857974145,-0.0033307810152563544,-0.07526766,0.0150804445,-0.0030110267,0.034773152,0.008555281,0.99935865,0.99939525,-0.00029767412,-0.03477188,0.0,-0.9999634,0.008560458,0.40222587890625,0.143652099609375,11.257536206054686,0.25348395,0.0,7.2891707,0.006034851
-0.07967228188493199,0.010924961730040842,-0.0014655436467127959,-0.07526766,0.0150804445,-0.0030110267,0.034773152,0.008555281,0.99935865,0.99939525,-0.00029767412,-0.03477188,0.0,-0.9999634,0.008560458,0.33518823242187495,0.13407529296874998,11.156979736328124,0.25555536,0.0,7.3581185,0.0061798096
-0.07847320071943971,0.005062787143189658,-0.0057289433462409285,-0.07526766,0.0150804445,-0.0030110267,0.034773152,0.008555281,0.99935865,0.99939525,-0.00029767412,-0.03477188,0.0,-0.9999634,0.008560458,0.3902548706054687,0.05746083984375,11.298237634277344,0.25796407,0.0,7.427853,0.00617218
-0.07887289444127048,0.008793261880276773,0.0,-0.07526766,0.0150804445,-0.0030110267,0.034773152,0.008555281,0.99935865,0.99939525,-0.00029767412,-0.03477188,0.0,-0.9999634,0.008560458,0.37828386230468747,0.1197100830078125,11.221623181152344,0.26029313,0.0,7.496944,0.0061569214
-0.08033843808798326,0.013323124061025418,-0.005595712105630674,-0.07526766,0.0150804445,-0.0030110267,0.034773152,0.008555281,0.99935865,0.99939525,-0.00029767412,-0.03477188,0.0,-0.9999634,0.008560458,0.46208092041015625,0.105344873046875,11.159373937988281,0.26314166,0.0,7.5657363,0.006164551
-0.08007197560676275,0.00985911180515881,-0.0018652373685435584,-0.07526766,0.0150804445,-0.0030110267,0.034773152,0.008555281,0.99935865,0.99939525,-0.00029767412,-0.03477188,0.0,-0.9999634,0.008560458,0.4644751220703125,0.12210428466796874,11.21683477783203,0.26600495,0.0,7.634883,0.006164551
-0.07993874436615249,0.010125574286379316,-0.003464012255866608,-0.07526766,0.0150804445,-0.0030110267,0.034773152,0.008555281,0.99935865,0.99939525,-0.00029767412,-0.03477188,0.0,-0.9999634,0.008560458,0.34237083740234375,0.07422025146484375,11.245565197753905,0.2681181,0.0,7.704293,0.00617218
-0.07927258816310122,0.01185758041431262,-0.003464012255866608,-0.07526766,0.0150804445,-0.0030110267,0.034773152,0.008555281,0.99935865,0.99939525,-0.00029767412,-0.03477188,0.0,-0.9999634,0.008560458,0.44053310546874996,0.13646949462890623,11.228805786132812,0.27082372,0.0,7.7732563,0.0061416626
-0.08380245034384987,0.009326186842717792,-0.002264931090374321,-0.07526766,0.0150804445,-0.0030110267,0.034773152,0.008555281,0.99935865,0.99939525,-0.00029767412,-0.03477188,0.0,-0.9999634,0.008560458,0.39983167724609375,0.09576806640624999,11.154585534667968,0.2732763,0.0,7.841679,0.006134033
-0.07807350699760894,0.009192955602107537,-0.00013323124061025415,-0.07526766,0.0150804445,-0.0030110267,0.034773152,0.008555281,0.99935865,0.99939525,-0.00029767412,-0.03477188,0.0,-0.9999634,0.008560458,0.41898529052734373,0.13168109130859373,11.192892761230468,0.27585277,0.0,7.9105077,0.006149292
-0.07767381327577817,0.0095926493239383,-0.002264931090374321,-0.07526766,0.0150804445,-0.0030110267,0.034773152,0.008555281,0.99935865,0.99939525,-0.00029767412,-0.03477188,0.0,-0.9999634,0.008560458,0.40940848388671874,0.13407529296874998,11.243170996093749,0.27838597,0.0,7.980074,0.006187439
-0.08100459429103453,0.011990811654922875,-0.0011990811654922875,-0.07526766,0.0150804445,-0.0030110267,0.034773152,0.008555281,0.99935865,0.99939525,-0.00029767412,-0.03477188,0.0,-0.9999634,0.008560458,0.4525041137695312,0.0909796630859375,11.231199987792968,0.28118235,0.0,8.04948,0.0061798096
-0.08060490056920376,0.017453292519943295,-0.0037304747370871167,-0.07526766,0.0150804445,-0.0030110267,0.034773152,0.008555281,0.99935865,0.99939525,-0.00029767412,-0.03477188,0.0,-0.9999634,0.008560458,0.3591302490234375,0.0383072265625,11.219228979492186,0.28339073,0.0,8.118471,0.006149292
-0.08273660041896783,0.0074609494741742334,-0.0002664624812205083,-0.07526766,0.0150804445,-0.0030110267,0.034773152,0.008555281,0.99935865,0.99939525,-0.00029767412,-0.03477188,0.0,-0.9999634,0.008560458,0.38307226562499996,0.08379705810546874,11.238382592773437,0.2857814,0.0,8.188608,0.0062408447
-0.07833996947882944,0.009059724361497283,-0.00479632466196915,-0.07526766,0.0150804445,-0.0030110267,0.034773152,0.008555281,0.99935865,0.99939525,-0.00029767412,-0.03477188,0.0,-0.9999634,0.008560458,0.3112462158203125,0.1149216796875,11.312602844238281,0.2877191,0.0,8.259036,0.006225586
-0.08127105677225505,0.010658499248820334,-0.006128637068071691,-0.07526766,0.0150804445,-0.0030110267,0.034773152,0.008555281,0.99935865,0.99939525,-0.00029767412,-0.03477188,0.0,-0.9999634,0.008560458,0.33758243408203126,0.02633621826171875,11.262324609375,0.28979242,0.0,8.328205,0.0061416626
-0.07847320071943971,0.010791730489430587,-0.004529862180748642,-0.07526766,0.0150804445,-0.0030110267,0.034773152,0.008555281,0.99935865,0.99939525,-0.00029767412,-0.03477188,0.0,-0.9999634,0.008560458,0.42377369384765623,0.13407529296874998,11.130643518066405,0.29240155,0.0,8.396735,0.0061569214
-0.07967228188493199,0.008793261880276773,-0.004929555902579405,-0.07526766,0.0150804445,-0.0030110267,0.034773152,0.008555281,0.99935865,0.99939525,-0.00029767412,-0.03477188,0.0,-0.9999634,0.008560458,0.3399766357421875,0.09337386474609374,11.207257971191405,0.29451293,0.0,8.466336,0.006210327
-0.0816707504940858,0.006128637068071691,-0.00479632466196915,-0.07526766,0.0150804445,-0.0030110267,0.034773152,0.008555281,0.99935865,0.99939525,-0.00029767412,-0.03477188,0.0,-0.9999634,0.008560458,0.411802685546875,0.12449848632812499,11.298237634277344,0.29709235,0.0,8.537106,0.006263733
-0.08100459429103453,0.009326186842717792,-0.0021316998497640663,-0.07526766,0.0150804445,-0.0030110267,0.034773152,0.008555281,0.99935865,0.99939525,-0.00029767412,-0.03477188,0.0,-0.9999634,0.008560458,0.39264907226562495,0.09816226806640624,11.212046374511718,0.29955778,0.0,8.607506,0.0062789917
-0.07900612568188072,0.0075941807147844875,-0.0031975497746461,-0.07526766,0.0150804445,-0.0030110267,0.034773152,0.008555281,0.99935865,0.99939525,-0.00029767412,-0.03477188,0.0,-0.9999634,0.008560458,0.430956298828125,0.09576806640624999,11.231199987792968,0.30228347,0.0,8.67854,0.006324768
-0.08233690669713707,0.0127901990985844,-0.0003996937218307625,-0.07526766,0.0150804445,-0.0030110267,0.034773152,0.008555281,0.99935865,0.99939525,-0.00029767412,-0.03477188,0.0,-0.9999634,0.008560458,0.3758896606445312,0.08379705810546874,11.279084020996093,0.30464366,0.0,8.749361,0.0062789917
-0.07860643196004995,0.011191424211261349,-0.003464012255866608,-0.07526766,0.0150804445,-0.0030110267,0.034773152,0.008555281,0.99935865,0.99939525,-0.00029767412,-0.03477188,0.0,-0.9999634,0.008560458,0.39743747558593745,0.07900865478515624,11.209652172851563,0.30712703,0.0,8.819405,0.006248474
-0.08153751925347555,0.010125574286379316,-0.0026646248122050836,-0.07526766,0.0150804445,-0.0030110267,0.034773152,0.008555281,0.99935865,0.99939525,-0.00029767412,-0.03477188,0.0,-0.9999634,0.008560458,0.354341845703125,0.08858546142578125,11.221623181152344,0.30935463,0.0,8.889951,0.006286621
-0.08193721297530632,0.009459418083328047,-0.004396630940138387,-0.07526766,0.0150804445,-0.0030110267,0.034773152,0.008555281,0.99935865,0.99939525,-0.00029767412,-0.03477188,0.0,-0.9999634,0.008560458,0.354341845703125,0.1197100830078125,11.231199987792968,0.31156603,0.0,8.960043,0.0062408447
-0.07953905064432175,0.01185758041431262,0.0,-0.07526766,0.0150804445,-0.0030110267,0.034773152,0.008555281,0.99935865,0.99939525,-0.00029767412,-0.03477188,0.0,-0.9999634,0.008560458,0.38786066894531246,0.062249243164062495,11.25514200439453,0.31397772,0.0,9.030027,0.0062179565
-0.08113782553164478,0.009992343045769061,-0.0009326186842717792,-0.07526766,0.0150804445,-0.0030110267,0.034773152,0.008555281,0.99935865,0.99939525,-0.00029767412,-0.03477188,0.0,-0.9999634,0.008560458,0.46686932373046874,0.062249243164062495,11.226411584472656,0.31688783,0.0,9.100004,0.0062332153
-0.08047166932859352,0.012923430339194655,-0.001732006127933304,-0.07526766,0.0150804445,-0.0030110267,0.034773152,0.008555281,0.99935865,0.99939525,-0.00029767412,-0.03477188,0.0,-0.9999634,0.008560458,0.36152445068359373,0.12210428466796874,11.207257971191405,0.31915507,0.0,9.170289,0.0062713623
-0.07873966320066021,0.01372281778285618,-0.0006661562030512709,-0.07526766,0.0150804445,-0.0030110267,0.034773152,0.008555281,0.99935865,0.99939525,-0.00029767412,-0.03477188,0.0,-0.9999634,0.008560458,0.45489831542968745,0.08379705810546874,11.288660827636718,0.3219836,0.0,9.240481,0.0062179565
-0.07913935692249098,0.010392036767599824,-0.0039969372183076245,-0.07526766,0.0150804445,-0.0030110267,0.034773152,0.008555281,0.99935865,0.99939525,-0.00029767412,-0.03477188,0.0,-0.9999634,0.008560458,0.3758896606445312,0.11252747802734374,11.264718811035156,0.32426637,0.0,9.308892,0.006072998
-0.07554211342601411,0.010392036767599824,0.0011990811654922875,-0.07526766,0.0150804445,-0.0030110267,0.034773152,0.008555281,0.99935865,0.99939525,-0.00029767412,-0.03477188,0.0,-0.9999634,0.008560458,0.4261678955078125,0.0430956298828125,11.252747802734374,0.32682848,0.0,9.376543,0.006011963
-0.08087136305042428,0.00866003063966652,-0.0033307810152563544,-0.07526766,0.0150804445,-0.0030110267,0.034773152,0.008555281,0.99935865,0.99939525,-0.00029767412,-0.03477188,0.0,-0.9999634,0.008560458,0.3687070556640625,0.07422025146484375,11.204863769531249,0.3290395,0.0,9.443735,0.005996704
-0.08180398173469605,0.011457886692481857,-0.00013323124061025415,-0.07526766,0.0150804445,-0.0030110267,0.034773152,0.008555281,0.99935865,0.99939525,-0.00029767412,-0.03477188,0.0,-0.9999634,0.008560458,0.3711012573242187,0.07422025146484375,11.257536206054686,0.33126774,0.0,9.511329,0.0060043335
-0.08007197560676275,0.009725880564548555,-0.0005329249624410166,-0.07526766,0.0150804445,-0.0030110267,0.034773152,0.008555281,0.99935865,0.99939525,-0.00029767412,-0.03477188,0.0,-0.9999634,0.008560458,0.3758896606445312,0.06943184814453125,11.276689819335937,0.3335247,0.0,9.579038,0.0060043335
-0.07833996947882944,0.012523736617363892,-0.003863705977697371,-0.07526766,0.0150804445,-0.0030110267,0.034773152,0.008555281,0.99935865,0.99939525,-0.00029767412,-0.03477188,0.0,-0.9999634,0.008560458,0.3950432739257812,0.1484405029296875,11.233594189453123,0.33589366,0.0,9.646402,0.005996704
-0.07794027575699868,0.009459418083328047,-0.004529862180748642,-0.07526766,0.0150804445,-0.0030110267,0.034773152,0.008555281,0.99935865,0.99939525,-0.00029767412,-0.03477188,0.0,-0.9999634,0.008560458,0.41419688720703124,0.12210428466796874,11.197681164550781,0.33838063,0.0,9.713637,0.0060043335
-0.08073813180981403,0.012390505376753637,-0.004263399699528133,-0.07526766,0.0150804445,-0.0030110267,0.034773152,0.008555281,0.99935865,0.99939525,-0.00029767412,-0.03477188,0.0,-0.9999634,0.008560458,0.3591302490234375,0.09576806640624999,11.233594189453123,0.3405452,0.0,9.781344,0.0060272217
-0.07913935692249098,0.011990811654922875,-0.0031975497746461,-0.07526766,0.0150804445,-0.0030110267,0.034773152,0.008555281,0.99935865,0.99939525,-0.00029767412,-0.03477188,0.0,-0.9999634,0.008560458,0.354341845703125,0.105344873046875,11.204863769531249,0.3426782,0.0,9.848793,0.0060195923
-0.07967228188493199,0.010924961730040842,-0.009459418083328047,-0.07526766,0.0150804445,-0.0030110267,0.034773152,0.008555281,0.99935865,0.99939525,-0.00029767412,-0.03477188,0.0,-0.9999634,0.008560458,0.3711012573242187,0.03591302490234375,11.259930407714844,0.3449036,0.0,9.916315,0.005996704
-0.08220367545652682,0.008793261880276773,-0.005462480865020421,-0.07526766,0.0150804445,-0.0030110267,0.034773152,0.008555281,0.99935865,0.99939525,-0.00029767412,-0.03477188,0.0,-0.9999634,0.008560458,0.39743747558593745,0.08858546142578125,11.243170996093749,0.34734452,0.0,9.985367,0.0061416626
-0.07953905064432175,0.013056661579804908,-0.0006661562030512709,-0.07526766,0.0150804445,-0.0030110267,0.034773152,0.008555281,0.99935865,0.99939525,-0.00029767412,-0.03477188,0.0,-0.9999634,0.008560458,0.38786066894531246,0.12449848632812499,11.312602844238281,0.34970888,0.0,10.054327,0.006095886
-0.0831362941407986,0.009992343045769061,0.002398162330984575,-0.07526766,0.0150804445,-0.0030110267,0.034773152,0.008555281,0.99935865,0.99939525,-0.00029767412,-0.03477188,0.0,-0.9999634,0.008560458,0.47644613037109373,0.08140285644531249,11.17852755126953,0.35263142,0.0,10.122896,0.006134033
-0.08087136305042428,0.010658499248820334,0.002797856052815337,-0.07526766,0.0150804445,-0.0030110267,0.034773152,0.008555281,0.99935865,0.99939525,-0.00029767412,-0.03477188,0.0,-0.9999634,0.008560458,0.3854664672851562,0.05985504150390625,11.250353601074218,0.35498706,0.0,10.1916485,0.006111145
-0.07780704451638844,0.007061255752343471,-0.0031975497746461,-0.07526766,0.0150804445,-0.0030110267,0.034773152,0.008555281,0.99935865,0.99939525,-0.00029767412,-0.03477188,0.0,-0.9999634,0.008560458,0.40940848388671874,0.1005564697265625,11.231199987792968,0.3574859,0.0,10.260199,0.0061035156
-0.08007197560676275,0.00985911180515881,-0.0029310872934255917,-0.07526766,0.0150804445,-0.0030110267,0.034773152,0.008555281,0.99935865,0.99939525,-0.00029767412,-0.03477188,0.0,-0.9999634,0.008560458,0.4213794921875,0.1005564697265625,11.288660827636718,0.36005458,0.0,10.329013,0.006095886
-0.07847320071943971,0.010658499248820334,-0.004396630940138387,-0.07526766,0.0150804445,-0.0030110267,0.034773152,0.008555281,0.99935865,0.99939525,-0.00029767412,-0.03477188,0.0,-0.9999634,0.008560458,0.39983167724609375,0.0430956298828125,11.200075366210937,0.36269325,0.0,10.402927,0.0065994263
-0.08113782553164478,0.011591117933092112,-0.004663093421358896,-0.07526766,0.0150804445,-0.0030110267,0.034773152,0.008555281,0.99935865,0.99939525,-0.00029767412,-0.03477188,0.0,-0.9999634,0.008560458,0.39743747558593745,0.086191259765625,11.197681164550781,0.36513722,0.0,10.471786,0.006149292
-0.08127105677225505,0.007860643196004996,-0.005462480865020421,-0.07526766,0.0150804445,-0.0030110267,0.034773152,0.008555281,0.99935865,0.99939525,-0.00029767412,-0.03477188,0.0,-0.9999634,0.008560458,0.4213794921875,0.086191259765625,11.207257971191405,0.3677059,0.0,10.540104,0.006095886
-0.08033843808798326,0.0127901990985844,-0.004396630940138387,-0.07526766,0.0150804445,-0.0030110267,0.034773152,0.008555281,0.99935865,0.99939525,-0.00029767412,-0.03477188,0.0,-0.9999634,0.008560458,0.36152445068359373,0.13407529296874998,11.10191309814453,0.36992076,0.0,10.608119,0.006126404
-0.07967228188493199,0.0095926493239383,0.000799387443661525,-0.07526766,0.0150804445,-0.0030110267,0.034773152,0.008555281,0.99935865,0.99939525,-0.00029767412,-0.03477188,0.0,-0.9999634,0.008560458,0.40940848388671874,0.11013327636718749,11.231199987792968,0.37243208,0.0,10.6770115,0.006134033
-0.07807350699760894,0.005462480865020421,-0.0013323124061025418,-0.07526766,0.0150804445,-0.0030110267,0.034773152,0.008555281,0.99935865,0.99939525,-0.00029767412,-0.03477188,0.0,-0.9999634,0.008560458,0.3806780639648437,0.12449848632812499,11.307814440917968,0.37476426,0.0,10.746287,0.006126404
-0.08033843808798326,0.011324655451871604,-0.0026646248122050836,-0.07526766,0.0150804445,-0.0030110267,0.034773152,0.008555281,0.99935865,0.99939525,-0.00029767412,-0.03477188,0.0,-0.9999634,0.008560458,0.36631285400390623,0.086191259765625,11.192892761230468,0.37700006,0.0,10.814604,0.0061035156
-0.08113782553164478,0.01532159267017923,0.0019984686091538122,-0.07526766,0.0150804445,-0.0030110267,0.034773152,0.008555281,0.99935865,0.99939525,-0.00029767412,-0.03477188,0.0,-0.9999634,0.008560458,0.3591302490234375,0.105344873046875,11.214440576171874,0.37920025,0.0,10.883308,0.006126404
-0.08100459429103453,0.005329249624410167,-0.0035972434964768626,-0.07526766,0.0150804445,-0.0030110267,0.034773152,0.008555281,0.99935865,0.99939525,-0.00029767412,-0.03477188,0.0,-0.9999634,0.008560458,0.40222587890625,0.031124621582031248,11.214440576171874,0.38166445,0.0,10.952013,0.006126404
-0.07940581940371148,0.011058192970651094,-0.0030643185340358454,-0.07526766,0.0150804445,-0.0030110267,0.034773152,0.008555281,0.99935865,0.99939525,-0.00029767412,-0.03477188,0.0,-0.9999634,0.008560458,0.36391865234375,0.143652099609375,11.269507214355468,0.38388285,0.0,11.020711,0.006095886
-0.07820673823821919,0.011591117933092112,-0.002531393571594829,-0.07526766,0.0150804445,-0.0030110267,0.034773152,0.008555281,0.99935865,0.99939525,-0.00029767412,-0.03477188,0.0,-0.9999634,0.008560458,0.40462008056640625,0.12449848632812499,11.25514200439453,0.386371,0.0,11.089922,0.006149292
-0.07993874436615249,0.008260336917835759,-0.0010658499248820332,-0.07526766,0.0150804445,-0.0030110267,0.034773152,0.008555281,0.99935865,0.99939525,-0.00029767412,-0.03477188,0.0,-0.9999634,0.008560458,0.4070142822265625,0.05985504150390625,11.188104357910156,0.38885522,0.0,11.158209,0.0061035156
-0.0814042880128653,0.008393568158446012,-0.0029310872934255917,-0.07526766,0.0150804445,-0.0030110267,0.034773152,0.008555281,0.99935865,0.99939525,-0.00029767412,-0.03477188,0.0,-0.9999634,0.008560458,0.34715924072265625,0.13168109130859373,11.305420239257812,0.39098737,0.0,11.227643,0.0061416626
-0.07940581940371148,0.01185758041431262,-0.0026646248122050836,-0.07526766,0.0150804445,-0.0030110267,0.034773152,0.008555281,0.99935865,0.99939525,-0.00029767412,-0.03477188,0.0,-0.9999634,0.008560458,0.3806780639648437,0.11731588134765625,11.267113012695312,0.39332536,0.0,11.296842,0.0061416626
-0.08047166932859352,0.012656967857974145,-0.001732006127933304,-0.07526766,0.0150804445,-0.0030110267,0.034773152,0.008555281,0.99935865,0.99939525,-0.00029767412,-0.03477188,0.0,-0.9999634,0.008560458,0.44053310546874996,0.11252747802734374,11.18571015625,0.3960108,0.0,11.365028,0.006095886
-0.07940581940371148,0.01052526800821008,-0.004396630940138387,-0.07526766,0.0150804445,-0.0030110267,0.034773152,0.008555281,0.99935865,0.99939525,-0.00029767412,-0.03477188,0.0,-0.9999634,0.008560458,0.43574470214843747,0.08140285644531249,11.281478222656249,0.39866704,0.0,11.433799,0.006095886
-0.08193721297530632,0.011058192970651094,-0.0006661562030512709,-0.07526766,0.0150804445,-0.0030110267,0.034773152,0.008555281,0.99935865,0.99939525,-0.00029767412,-0.03477188,0.0,-0.9999634,0.008560458,0.45968671875,0.11013327636718749,11.235988391113281,0.4017077,0.0,11.5081215,0.006614685
-0.07794027575699868,0.010392036767599824,-0.0011990811654922875,-0.07526766,0.0150804445,-0.0030110267,0.034773152,0.008555281,0.99935865,0.99939525,-0.00029767412,-0.03477188,0.0,-0.9999634,0.008560458,0.37828386230468747,0.1197100830078125,11.221623181152344,0.4040339,0.0,11.5771265,0.006149292
-0.07847320071943971,0.009326186842717792,-0.004130168458917879,-0.07526766,0.0150804445,-0.0030110267,0.034773152,0.008555281,0.99935865,0.99939525,-0.00029767412,-0.03477188,0.0,-0.9999634,0.008560458,0.36391865234375,0.09337386474609374,11.200075366210937,0.40625787,0.0,11.645572,0.006111145
-0.08100459429103453,0.008926493120887028,-0.0019984686091538122,-0.07526766,0.0150804445,-0.0030110267,0.034773152,0.008555281,0.99935865,0.99939525,-0.00029767412,-0.03477188,0.0,-0.9999634,0.008560458,0.36391865234375,0.1388636962890625,11.243170996093749,0.40848184,0.0,11.71428,0.006111145
-0.08073813180981403,0.012923430339194655,-0.002264931090374321,-0.07526766,0.0150804445,-0.0030110267,0.034773152,0.008555281,0.99935865,0.99939525,-0.00029767412,-0.03477188,0.0,-0.9999634,0.008560458,0.35673604736328124,0.14125789794921875,11.207257971191405,0.41067278,0.0,11.783112,0.0061416626
-0.07594180714784488,0.011591117933092112,-0.0029310872934255917,-0.07526766,0.0150804445,-0.0030110267,0.034773152,0.008555281,0.99935865,0.99939525,-0.00029767412,-0.03477188,0.0,-0.9999634,0.008560458,0.41419688720703124,0.10773907470703124,11.204863769531249,0.41321665,0.0,11.851928,0.0061416626
-0.07887289444127048,0.009992343045769061,-0.0039969372183076245,-0.07526766,0.0150804445,-0.0030110267,0.034773152,0.008555281,0.99935865,0.99939525,-0.00029767412,-0.03477188,0.0,-0.9999634,0.008560458,0.36152445068359373,0.1005564697265625,11.176133349609374,0.41543424,0.0,11.920483,0.006134033
-0.08060490056920376,0.009725880564548555,-0.0010658499248820332,-0.07526766,0.0150804445,-0.0030110267,0.034773152,0.008555281,0.99935865,0.99939525,-0.00029767412,-0.03477188,0.0,-0.9999634,0.008560458,0.373495458984375,0.0718260498046875,11.2240173828125,0.41772243,0.0,11.989245,0.006126404
-0.08007197560676275,0.01212404289553313,-0.0013323124061025418,-0.07526766,0.0150804445,-0.0030110267,0.034773152,0.008555281,0.99935865,0.99939525,-0.00029767412,-0.03477188,0.0,-0.9999634,0.008560458,0.41419688720703124,0.10773907470703124,11.269507214355468,0.42026314,0.0,12.0583725,0.006134033
-0.07967228188493199,0.010924961730040842,-0.002797856052815337,-0.07526766,0.0150804445,-0.0030110267,0.034773152,0.008555281,0.99935865,0.99939525,-0.00029767412,-0.03477188,0.0,-0.9999634,0.008560458,0.3758896606445312,0.09576806640624999,11.233594189453123,0.42256024,0.0,12.127023,0.006111145
-0.07927258816310122,0.01052526800821008,-0.0009326186842717792,-0.07526766,0.0150804445,-0.0030110267,0.034773152,0.008555281,0.99935865,0.99939525,-0.00029767412,-0.03477188,0.0,-0.9999634,0.008560458,0.36152445068359373,0.12210428466796874,11.221623181152344,0.42477784,0.0,12.195856,0.006134033
-0.07953905064432175,0.00985911180515881,0.000799387443661525,-0.07526766,0.0150804445,-0.0030110267,0.034773152,0.008555281,0.99935865,0.99939525,-0.00029767412,-0.03477188,0.0,-0.9999634,0.008560458,0.43574470214843747,0.09816226806640624,11.2240173828125,0.42744073,0.0,12.264448,0.006111145
-0.08300306290018834,0.011990811654922875,-0.002531393571594829,-0.07526766,0.0150804445,-0.0030110267,0.034773152,0.008555281,0.99935865,0.99939525,-0.00029767412,-0.03477188,0.0,-0.9999634,0.008560458,0.3591302490234375,0.08379705810546874,11.188104357910156,0.4296464,0.0,12.333161,0.0061416626
-0.07927258816310122,0.010392036767599824,-0.004263399699528133,-0.07526766,0.0150804445,-0.0030110267,0.034773152,0.008555281,0.99935865,0.99939525,-0.00029767412,-0.03477188,0.0,-0.9999634,0.008560458,0.4070142822265625,0.086191259765625,11.350910070800781,0.43214926,0.0,12.402962,0.006149292
-0.07887289444127048,0.013189892820415163,-0.0031975497746461,-0.07526766,0.0150804445,-0.0030110267,0.034773152,0.008555281,0.99935865,0.99939525,-0.00029767412,-0.03477188,0.0,-0.9999634,0.008560458,0.44532150878906246,0.09337386474609374,11.228805786132812,0.4348673,0.0,12.471497,0.0061035156
-0.07993874436615249,0.011591117933092112,0.0005329249624410166,-0.07526766,0.0150804445,-0.0030110267,0.034773152,0.008555281,0.99935865,0.99939525,-0.00029767412,-0.03477188,0.0,-0.9999634,0.008560458,0.3280056274414062,0.1388636962890625,11.18571015625,0.43687928,0.0,12.54011,0.006134033
-0.07993874436615249,0.011058192970651094,-0.0018652373685435584,-0.07526766,0.0150804445,-0.0030110267,0.034773152,0.008555281,0.99935865,0.99939525,-0.00029767412,-0.03477188,0.0,-0.9999634,0.008560458,0.3950432739257812,0.0909796630859375,11.21683477783203,0.43937483,0.0,12.610968,0.0063171387
-0.08007197560676275,0.014522205226517705,-0.005196018383799912,-0.07526766,0.0150804445,-0.0030110267,0.034773152,0.008555281,0.99935865,0.99939525,-0.00029767412,-0.03477188,0.0,-0.9999634,0.008560458,0.38307226562499996,0.0526724365234375,11.238382592773437,0.44171876,0.0,12.679732,0.0061187744
-0.07913935692249098,0.00985911180515881,-0.0005329249624410166,-0.07526766,0.0150804445,-0.0030110267,0.034773152,0.008555281,0.99935865,0.99939525,-0.00029767412,-0.03477188,0.0,-0.9999634,0.008560458,0.430956298828125,0.09337386474609374,11.2240173828125,0.44436884,0.0,12.748752,0.006149292
-0.07887289444127048,0.007727411955394742,-0.005329249624410167,-0.07526766,0.0150804445,-0.0030110267,0.034773152,0.008555281,0.99935865,0.99939525,-0.00029767412,-0.03477188,0.0,-0.9999634,0.008560458,0.38307226562499996,0.07900865478515624,11.180921752929686,0.44672155,0.0,12.817421,0.0061416626
-0.08233690669713707,0.011591117933092112,-0.003464012255866608,-0.07526766,0.0150804445,-0.0030110267,0.034773152,0.008555281,0.99935865,0.99939525,-0.00029767412,-0.03477188,0.0,-0.9999634,0.008560458,0.35673604736328124,0.06703764648437499,11.252747802734374,0.44889075,0.0,12.885845,0.0060806274
-0.07820673823821919,0.010658499248820334,-0.00013323124061025415,-0.07526766,0.0150804445,-0.0030110267,0.034773152,0.008555281,0.99935865,0.99939525,-0.00029767412,-0.03477188,0.0,-0.9999634,0.008560458,0.38786066894531246,0.086191259765625,11.250353601074218,0.45127285,0.0,12.954941,0.0061416626
-0.07807350699760894,0.009192955602107537,-0.00013323124061025415,-0.07526766,0.0150804445,-0.0030110267,0.034773152,0.008555281,0.99935865,0.99939525,-0.00029767412,-0.03477188,0.0,-0.9999634,0.008560458,0.38307226562499996,0.08858546142578125,11.212046374511718,0.45361385,0.0,13.023459,0.006111145
-0.080205206847373,0.0095926493239383,-0.0035972434964768626,-0.07526766,0.0150804445,-0.0030110267,0.034773152,0.008555281,0.99935865,0.99939525,-0.00029767412,-0.03477188,0.0,-0.9999634,0.008560458,0.3806780639648437,0.06703764648437499,11.2240173828125,0.4559344,0.0,13.09188,0.006095886
-0.07980551312554225,0.009059724361497283,-0.0021316998497640663,-0.07526766,0.0150804445,-0.0030110267,0.034773152,0.008555281,0.99935865,0.99939525,-0.00029767412,-0.03477188,0.0,-0.9999634,0.008560458,0.36631285400390623,0.07422025146484375,11.18571015625,0.45817858,0.0,13.160408,0.006126404
-0.07780704451638844,0.010125574286379316,-0.004929555902579405,-0.07526766,0.0150804445,-0.0030110267,0.034773152,0.008555281,0.99935865,0.99939525,-0.00029767412,-0.03477188,0.0,-0.9999634,0.008560458,0.41419688720703124,0.1005564697265625,11.274295617675781,0.46070665,0.0,13.22922,0.0061035156
-0.07967228188493199,0.013323124061025418,-0.00159877488732305,-0.07526766,0.0150804445,-0.0030110267,0.034773152,0.008555281,0.99935865,0.99939525,-0.00029767412,-0.03477188,0.0,-0.9999634,0.008560458,0.48123453369140623,0.13407529296874998,11.262324609375,0.46364754,0.0,13.298046,0.006111145
-0.08033843808798326,0.014788667707738212,-0.002797856052815337,-0.07526766,0.0150804445,-0.0030110267,0.034773152,0.008555281,0.99935865,0.99939525,-0.00029767412,-0.03477188,0.0,-0.9999634,0.008560458,0.40462008056640625,0.08858546142578125,11.212046374511718,0.46612024,0.0,13.366565,0.006111145
-0.07993874436615249,0.011591117933092112,-0.002398162330984575,-0.07526766,0.0150804445,-0.0030110267,0.034773152,0.008555281,0.99935865,0.99939525,-0.00029767412,-0.03477188,0.0,-0.9999634,0.008560458,0.42377369384765623,0.07422025146484375,11.18571015625,0.46871644,0.0,13.435093,0.006126404
-0.08060490056920376,0.009059724361497283,-0.001732006127933304,-0.07526766,0.0150804445,-0.0030110267,0.034773152,0.008555281,0.99935865,0.99939525,-0.00029767412,-0.03477188,0.0,-0.9999634,0.008560458,0.3112462158203125,0.13407529296874998,11.226411584472656,0.47062802,0.0,13.504042,0.0061416626
-0.08073813180981403,0.009992343045769061,-0.0018652373685435584,-0.07526766,0.0150804445,-0.0030110267,0.034773152,0.008491032,0.9993592,0.99939525,-0.00029543863,-0.034771897,0.0,-0.99996394,0.008496171,0.44532150878906246,0.09816226806640624,11.269507214355468,0.47334605,0.0,13.572825,0.0061035156
-0.07847320071943971,0.013323124061025418,-0.0033307810152563544,-0.07526766,0.0150804445,-0.0030110267,0.034848094,0.008491032,0.99935657,0.9993926,-0.00029543863,-0.034846842,6.3712685e-07,-0.99996394,0.008496171,0.3902548706054687,0.07900865478515624,11.334150659179686,0.4759245,0.0,13.647711,0.0066070557
-0.07873966320066021,0.007727411955394742,0.0003996937218307625,-0.07526766,0.0150804445,-0.0030110267,0.034848094,0.008491032,0.99935657,0.9993926,-0.00029543863,-0.034846842,6.3712685e-07,-0.99996394,0.008496171,0.38786066894531246,0.04548983154296875,11.027692846679686,0.47829476,0.0,13.715102,0.006111145
-0.07847320071943971,0.011724349173702367,0.0013323124061025418,-0.07526766,0.0150804445,-0.0030110267,0.034848094,0.008491032,0.99935657,0.9993926,-0.00029543863,-0.034846842,6.3712685e-07,-0.99996394,0.008496171,0.36152445068359373,0.028730419921875,11.231199987792968,0.4805041,0.0,13.783738,0.006111145
-0.08220367545652682,0.007860643196004996,-0.0011990811654922875,-0.07526766,0.0150804445,-0.0030110267,0.034848094,0.008491032,0.99935657,0.9993926,-0.00029543863,-0.034846842,6.3712685e-07,-0.99996394,0.008496171,0.37828386230468747,0.13407529296874998,11.200075366210937,0.48281583,0.0,13.852183,0.006111145
-0.08087136305042428,0.009725880564548555,-0.0010658499248820332,-0.07526766,0.0150804445,-0.0030110267,0.034848094,0.008491032,0.99935657,0.9993926,-0.00029543863,-0.034846842,6.3712685e-07,-0.99996394,0.008496171,0.4333505004882812,0.08858546142578125,11.243170996093749,0.48548064,0.0,13.921321,0.006149292
-0.07714088831333717,0.013589586542245924,-0.0006661562030512709,-0.07526766,0.0150804445,-0.0030110267,0.034848094,0.008491032,0.99935657,0.9993926,-0.00029543863,-0.034846842,6.3712685e-07,-0.99996394,0.008496171,0.36631285400390623,0.0718260498046875,11.291055029296874,0.487722,0.0,13.990408,0.0061187744
-0.0814042880128653,0.010258805526989571,-0.002398162330984575,-0.07526766,0.0150804445,-0.0030110267,0.034848094,0.008491032,0.99935657,0.9993926,-0.00029543863,-0.034846842,6.3712685e-07,-0.99996394,0.008496171,0.3687070556640625,0.031124621582031248,11.133037719726563,0.4899696,0.0,14.058273,0.006095886
-0.08153751925347555,0.009725880564548555,-0.0014655436467127959,-0.07526766,0.0150804445,-0.0030110267,0.034848094,0.008491032,0.99935657,0.9993926,-0.00029543863,-0.034846842,6.3712685e-07,-0.99996394,0.008496171,0.41419688720703124,0.11731588134765625,11.202469567871093,0.49249768,0.0,14.126648,0.0061035156
-0.07900612568188072,0.011058192970651094,-0.0006661562030512709,-0.07526766,0.0150804445,-0.0030110267,0.034848094,0.008491032,0.99935657,0.9993926,-0.00029543863,-0.034846842,6.3712685e-07,-0.99996394,0.008496171,0.35673604736328124,0.12449848632812499,11.247959399414063,0.4946723,0.0,14.195214,0.006095886
-0.08073813180981403,0.00985911180515881,0.0,-0.07526766,0.0150804445,-0.0030110267,0.034848094,0.008491032,0.99935657,0.9993926,-0.00029543863,-0.034846842,6.3712685e-07,-0.99996394,0.008496171,0.33518823242187495,0.15083470458984374,11.305420239257812,0.49673092,0.0,14.264648,0.0061416626
-0.08087136305042428,0.010791730489430587,-0.003464012255866608,-0.07526766,0.0150804445,-0.0030110267,0.034848094,0.008491032,0.99935657,0.9993926,-0.00029543863,-0.034846842,6.3712685e-07,-0.99996394,0.008496171,0.4333505004882812,0.07900865478515624,11.195286962890624,0.49937588,0.0,14.332979,0.0061035156
-0.080205206847373,0.008393568158446012,-0.0030643185340358454,-0.07526766,0.0150804445,-0.0030110267,0.034848094,0.008491032,0.99935657,0.9993926,-0.00029543863,-0.034846842,6.3712685e-07,-0.99996394,0.008496171,0.45010991210937495,0.14604630126953125,11.233594189453123,0.5021231,0.0,14.401544,0.0061035156
-0.07993874436615249,0.012523736617363892,-0.003464012255866608,-0.07526766,0.0150804445,-0.0030110267,0.034848094,0.008491032,0.99935657,0.9993926,-0.00029543863,-0.034846842,6.3712685e-07,-0.99996394,0.008496171,0.42377369384765623,0.06703764648437499,11.214440576171874,0.5047129,0.0,14.470077,0.006111145
-0.07807350699760894,0.014122511504686942,-0.00013323124061025415,-0.07526766,0.0150804445,-0.0030110267,0.034848094,0.008491032,0.99935657,0.9993926,-0.00029543863,-0.034846842,6.3712685e-07,-0.99996394,0.008496171,0.4572925170898437,0.0430956298828125,11.243170996093749,0.5075214,0.0,14.539128,0.0061416626
-0.07900612568188072,0.012923430339194655,-0.0035972434964768626,-0.07526766,0.0150804445,-0.0030110267,0.034848094,0.008491032,0.99935657,0.9993926,-0.00029543863,-0.034846842,6.3712685e-07,-0.99996394,0.008496171,0.41898529052734373,0.06464344482421874,11.326968054199218,0.5101011,0.0,14.608868,0.0061569214
-0.07967228188493199,0.013189892820415163,-0.005329249624410167,-0.07526766,0.0150804445,-0.0030110267,0.034848094,0.008491032,0.99935657,0.9993926,-0.00029543863,-0.034846842,6.3712685e-07,-0.99996394,0.008496171,0.4333505004882812,0.086191259765625,11.233594189453123,0.51274604,0.0,14.677432,0.0061035156
-0.08300306290018834,0.0074609494741742334,-0.0031975497746461,-0.07526766,0.0150804445,-0.0030110267,0.034848094,0.008491032,0.99935657,0.9993926,-0.00029543863,-0.034846842,6.3712685e-07,-0.99996394,0.008496171,0.3232172241210937,0.08858546142578125,11.29344923095703,0.51487416,0.0,14.75179,0.0065841675
-0.08207044421591657,0.011324655451871604,-0.0021316998497640663,-0.07526766,0.0150804445,-0.0030110267,0.034848094,0.008491032,0.99935657,0.9993926,-0.00029543863,-0.034846842,6.3712685e-07,-0.99996394,0.008496171,0.34715924072265625,0.12449848632812499,11.247959399414063,0.5169957,0.0,14.820528,0.006111145
-0.07740735079455767,0.009192955602107537,-0.0014655436467127959,-0.07526766,0.0150804445,-0.0030110267,0.034848094,0.008491032,0.99935657,0.9993926,-0.00029543863,-0.034846842,6.3712685e-07,-0.99996394,0.008496171,0.33758243408203126,0.03591302490234375,11.257536206054686,0.519069,0.0,14.889668,0.0061416626
-0.07807350699760894,0.012523736617363892,-0.0011990811654922875,-0.07526766,0.0150804445,-0.0030110267,0.034848094,0.008491032,0.99935657,0.9993926,-0.00029543863,-0.034846842,6.3712685e-07,-0.99996394,0.008496171,0.36152445068359373,0.10295067138671875,11.226411584472656,0.5212701,0.0,14.958017,0.006088257
-0.07780704451638844,0.009992343045769061,-0.005196018383799912,-0.07526766,0.0150804445,-0.0030110267,0.034848094,0.008491032,0.99935657,0.9993926,-0.00029543863,-0.034846842,6.3712685e-07,-0.99996394,0.008496171,0.296881005859375,0.09576806640624999,11.303026037597656,0.52308214,0.0,15.027005,0.0061035156
-0.07913935692249098,0.011990811654922875,0.0,-0.07526766,0.0150804445,-0.0030110267,0.034848094,0.008491032,0.99935657,0.9993926,-0.00029543863,-0.034846842,6.3712685e-07,-0.99996394,0.008496171,0.373495458984375,0.11252747802734374,11.214440576171874,0.5253589,0.0,15.095367,0.006095886
-0.07847320071943971,0.006928024511733216,-0.001732006127933304,-0.07526766,0.0150804445,-0.0030110267,0.034848094,0.008491032,0.99935657,0.9993926,-0.00029543863,-0.034846842,6.3712685e-07,-0.99996394,0.008496171,0.33039982910156246,0.086191259765625,11.281478222656249,0.527373,0.0,15.164138,0.006095886
-0.080205206847373,0.01212404289553313,-0.0005329249624410166,-0.07526766,0.0150804445,-0.0030110267,0.034848094,0.008491032,0.99935657,0.9993926,-0.00029543863,-0.034846842,6.3712685e-07,-0.99996394,0.008496171,0.3280056274414062,0.10295067138671875,11.1474029296875,0.5293825,0.0,15.232431,0.006126404
-0.0814042880128653,0.012257274136143382,-0.0002664624812205083,-0.07526766,0.0150804445,-0.0030110267,0.034848094,0.008491032,0.99935657,0.9993926,-0.00029543863,-0.034846842,6.3712685e-07,-0.99996394,0.008496171,0.3758896606445312,0.06703764648437499,11.271901416015623,0.5316739,0.0,15.301144,0.006095886
-0.0814042880128653,0.011058192970651094,0.0003996937218307625,-0.07526766,0.0150804445,-0.0030110267,0.034848094,0.008491032,0.99935657,0.9993926,-0.00029543863,-0.034846842,6.3712685e-07,-0.99996394,0.008496171,0.3591302490234375,0.11252747802734374,11.21683477783203,0.5338741,0.0,15.369863,0.006126404
-0.08180398173469605,0.0095926493239383,-0.0031975497746461,-0.07526766,0.0150804445,-0.0030110267,0.034848094,0.008491032,0.99935657,0.9993926,-0.00029543863,-0.034846842,6.3712685e-07,-0.99996394,0.008496171,0.4261678955078125,0.05027823486328125,11.200075366210937,0.53647196,0.0,15.438137,0.006095886
-0.07913935692249098,0.009992343045769061,0.0003996937218307625,-0.07526766,0.0150804445,-0.0030110267,0.034848094,0.008491032,0.99935657,0.9993926,-0.00029543863,-0.034846842,6.3712685e-07,-0.99996394,0.008496171,0.36152445068359373,0.08140285644531249,11.212046374511718,0.53868955,0.0,15.506912,0.006134033
-0.07913935692249098,0.011191424211261349,-0.0014655436467127959,-0.07526766,0.0150804445,-0.0030110267,0.034848094,0.008491032,0.99935657,0.9993926,-0.00029543863,-0.034846842,6.3712685e-07,-0.99996394,0.008496171,0.5291185668945312,0.06943184814453125,11.180921752929686,0.54191905,0.0,15.575155,0.0061035156
-0.08233690669713707,0.0095926493239383,-0.0003996937218307625,-0.07526766,0.0150804445,-0.0030110267,0.034848094,0.008491032,0.99935657,0.9993926,-0.00029543863,-0.034846842,6.3712685e-07,-0.99996394,0.008496171,0.4525041137695312,0.05985504150390625,11.202469567871093,0.54469126,0.0,15.643786,0.006126404
-0.07740735079455767,0.010658499248820334,-0.004263399699528133,-0.07526766,0.0150804445,-0.0030110267,0.034848094,0.008491032,0.99935657,0.9993926,-0.00029543863,-0.034846842,6.3712685e-07,-0.99996394,0.008496171,0.34715924072265625,0.1005564697265625,11.267113012695312,0.5468287,0.0,15.713157,0.0061569214
-0.07953905064432175,0.006528330789902454,-0.0029310872934255917,-0.07526766,0.0150804445,-0.0030110267,0.034848094,0.008491032,0.99935657,0.9993926,-0.00029543863,-0.034846842,6.3712685e-07,-0.99996394,0.008496171,0.4740519287109375,0.14125789794921875,11.197681164550781,0.5497221,0.0,15.781502,0.0061035156
-0.07927258816310122,0.013189892820415163,-0.00159877488732305,-0.07526766,0.0150804445,-0.0030110267,0.034848094,0.008491032,0.99935657,0.9993926,-0.00029543863,-0.034846842,6.3712685e-07,-0.99996394,0.008496171,0.44053310546874996,0.0526724365234375,11.166556542968749,0.5526226,0.0,15.855024,0.0065841675
-0.07767381327577817,0.011191424211261349,-0.0035972434964768626,-0.07526766,0.0150804445,-0.0030110267,0.034848094,0.008491032,0.99935657,0.9993926,-0.00029543863,-0.034846842,6.3712685e-07,-0.99996394,0.008496171,0.4213794921875,0.143652099609375,11.288660827636718,0.5552299,0.0,15.924872,0.006187439
-0.07940581940371148,0.01212404289553313,-0.0006661562030512709,-0.07526766,0.0150804445,-0.0030110267,0.034848094,0.008491032,0.99935657,0.9993926,-0.00029543863,-0.034846842,6.3712685e-07,-0.99996394,0.008496171,0.41419688720703124,0.09816226806640624,11.192892761230468,0.55776113,0.0,15.993274,0.006111145
-0.07940581940371148,0.012390505376753637,-0.0033307810152563544,-0.07526766,0.0150804445,-0.0030110267,0.034848094,0.008491032,0.99935657,0.9993926,-0.00029543863,-0.034846842,6.3712685e-07,-0.99996394,0.008496171,0.36152445068359373,0.10295067138671875,11.180921752929686,0.559976,0.0,16.061773,0.006126404
-0.08406891282507037,0.011457886692481857,-0.004263399699528133,-0.07526766,0.0150804445,-0.0030110267,0.034848094,0.008491032,0.99935657,0.9993926,-0.00029543863,-0.034846842,6.3712685e-07,-0.99996394,0.008496171,0.3758896606445312,0.086191259765625,11.3006318359375,0.5622817,0.0,16.131092,0.006134033
-0.080205206847373,0.009059724361497283,-0.0019984686091538122,-0.07526766,0.0150804445,-0.0030110267,0.034848094,0.008491032,0.99935657,0.9993926,-0.00029543863,-0.034846842,6.3712685e-07,-0.99996394,0.008496171,0.34237083740234375,0.13646949462890623,11.252747802734374,0.5643792,0.0,16.200031,0.006126404
-0.08153751925347555,0.010125574286379316,-0.004396630940138387,-0.07526766,0.0150804445,-0.0030110267,0.034848094,0.008491032,0.99935657,0.9993926,-0.00029543863,-0.034846842,6.3712685e-07,-0.99996394,0.008496171,0.32082302246093747,0.105344873046875,11.243170996093749,0.56636184,0.0,16.269512,0.0061798096
-0.07967228188493199,0.01212404289553313,-0.0029310872934255917,-0.07526766,0.0150804445,-0.0030110267,0.034848094,0.008491032,0.99935657,0.9993926,-0.00029543863,-0.034846842,6.3712685e-07,-0.99996394,0.008496171,0.3495534423828125,0.14125789794921875,11.200075366210937,0.568498,0.0,16.337957,0.006111145
-0.08060490056920376,0.009326186842717792,-0.004929555902579405,-0.07526766,0.0150804445,-0.0030110267,0.034848094,0.008491032,0.99935657,0.9993926,-0.00029543863,-0.034846842,6.3712685e-07,-0.99996394,0.008496171,0.39264907226562495,0.16759411621093748,11.336544860839844,0.5708976,0.0,16.407236,0.006111145
-0.07980551312554225,0.013989280264076687,0.0009326186842717792,-0.07526766,0.0150804445,-0.0030110267,0.034848094,0.008491032,0.99935657,0.9993926,-0.00029543863,-0.034846842,6.3712685e-07,-0.99996394,0.008496171,0.33039982910156246,0.09337386474609374,11.226411584472656,0.5729142,0.0,16.475758,0.0061035156
-0.07967228188493199,0.008260336917835759,-0.0037304747370871167,-0.07526766,0.0150804445,-0.0030110267,0.034848094,0.008491032,0.99935657,0.9993926,-0.00029543863,-0.034846842,6.3712685e-07,-0.99996394,0.008496171,0.41419688720703124,0.12449848632812499,11.276689819335937,0.5754549,0.0,16.54493,0.006134033
-0.07913935692249098,0.016787136316892024,-0.002797856052815337,-0.07526766,0.0150804445,-0.0030110267,0.034848094,0.008491032,0.99935657,0.9993926,-0.00029543863,-0.034846842,6.3712685e-07,-0.99996394,0.008496171,0.33518823242187495,0.14604630126953125,11.231199987792968,0.5775058,0.0,16.613651,0.0061187744
-0.07833996947882944,0.008260336917835759,-0.0029310872934255917,-0.07526766,0.0150804445,-0.0030110267,0.034848094,0.008491032,0.99935657,0.9993926,-0.00029543863,-0.034846842,6.3712685e-07,-0.99996394,0.008496171,0.3758896606445312,0.12449848632812499,11.18571015625,0.5797972,0.0,16.681839,0.006095886
-0.08247013793774732,0.008260336917835759,-0.0030643185340358454,-0.07526766,0.0150804445,-0.0030110267,0.034848094,0.008491032,0.99935657,0.9993926,-0.00029543863,-0.034846842,6.3712685e-07,-0.99996394,0.008496171,0.35673604736328124,0.0909796630859375,11.257536206054686,0.58198816,0.0,16.750978,0.0061416626
-0.0814042880128653,0.006928024511733216,-0.0029310872934255917,-0.07526766,0.0150804445,-0.0030110267,0.034848094,0.008491032,0.99935657,0.9993926,-0.00029543863,-0.034846842,6.3712685e-07,-0.99996394,0.008496171,0.41898529052734373,0.08379705810546874,11.247959399414063,0.58454543,0.0,16.81963,0.0061035156
-0.07967228188493199,0.01052526800821008,-0.0014655436467127959,-0.07526766,0.0150804445,-0.0030110267,0.034848094,0.008491032,0.99935657,0.9993926,-0.00029543863,-0.034846842,6.3712685e-07,-0.99996394,0.008496171,0.4333505004882812,0.06943184814453125,11.207257971191405,0.5871871,0.0,16.887947,0.006095886
-0.08220367545652682,0.01185758041431262,0.0021316998497640663,-0.07526766,0.0150804445,-0.0030110267,0.034848094,0.008491032,0.99935657,0.9993926,-0.00029543863,-0.034846842,6.3712685e-07,-0.99996394,0.008496171,0.37828386230468747,0.09576806640624999,11.314997045898437,0.5894989,0.0,16.957094,0.006111145
-0.08127105677225505,0.010125574286379316,-0.0019984686091538122,-0.07526766,0.0150804445,-0.0030110267,0.034848094,0.008491032,0.99935657,0.9993926,-0.00029543863,-0.034846842,6.3712685e-07,-0.99996394,0.008496171,0.3902548706054687,0.086191259765625,11.221623181152344,0.5918778,0.0,17.0255,0.006095886
-0.07900612568188072,0.0127901990985844,-0.004263399699528133,-0.07526766,0.0150804445,-0.0030110267,0.034848094,0.008491032,0.99935657,0.9993926,-0.00029543863,-0.034846842,6.3712685e-07,-0.99996394,0.008496171,0.3591302490234375,0.05027823486328125,11.286266625976562,0.5940698,0.0,17.094385,0.0061035156
-0.08113782553164478,0.012257274136143382,-0.0010658499248820332,-0.07526766,0.0150804445,-0.0030110267,0.034848094,0.008491032,0.99935657,0.9993926,-0.00029543863,-0.034846842,6.3712685e-07,-0.99996394,0.008496171,0.3280056274414062,0.14604630126953125,11.212046374511718,0.5960693,0.0,17.162733,0.006095886
-0.07620826962906538,0.010392036767599824,-0.0037304747370871167,-0.07526766,0.0150804445,-0.0030110267,0.034848094,0.008491032,0.99935657,0.9993926,-0.00029543863,-0.034846842,6.3712685e-07,-0.99996394,0.008496171,0.45489831542968745,0.1149216796875,11.269507214355468,0.5988631,0.0,17.231947,0.0061416626
-0.07833996947882944,0.009459418083328047,-0.0013323124061025418,-0.07526766,0.0150804445,-0.0030110267,0.034848094,0.008491032,0.99935657,0.9993926,-0.00029543863,-0.034846842,6.3712685e-07,-0.99996394,0.008496171,0.39983167724609375,0.15562310791015624,11.202469567871093,0.6013035,0.0,17.300322,0.0061035156
-0.080205206847373,0.011724349173702367,-0.0037304747370871167,-0.07526766,0.0150804445,-0.0030110267,0.034848094,0.008491032,0.99935657,0.9993926,-0.00029543863,-0.034846842,6.3712685e-07,-0.99996394,0.008496171,0.3232172241210937,0.11013327636718749,11.283872424316405,0.60327625,0.0,17.369192,0.0061035156
-0.07993874436615249,0.0095926493239383,-0.0018652373685435584,-0.07526766,0.0150804445,-0.0030110267,0.034848094,0.008491032,0.99935657,0.9993926,-0.00029543863,-0.034846842,6.3712685e-07,-0.99996394,0.008496171,0.4165910888671875,0.143652099609375,11.18571015625,0.60581255,0.0,17.437294,0.006088257
-0.08153751925347555,0.007061255752343471,-0.002531393571594829,-0.07526766,0.0150804445,-0.0030110267,0.034848094,0.008491032,0.99935657,0.9993926,-0.00029543863,-0.034846842,6.3712685e-07,-0.99996394,0.008496171,0.3758896606445312,0.17238251953125,11.264718811035156,0.6081154,0.0,17.506306,0.006126404
-0.07967228188493199,0.012257274136143382,0.0,-0.07526766,0.0150804445,-0.0030110267,0.034848094,0.008491032,0.99935657,0.9993926,-0.00029543863,-0.034846842,6.3712685e-07,-0.99996394,0.008496171,0.34237083740234375,0.06943184814453125,11.262324609375,0.61021286,0.0,17.575304,0.006126404
-0.080205206847373,0.011191424211261349,-0.00479632466196915,-0.07526766,0.0150804445,-0.0030110267,0.034848094,0.008491032,0.99935657,0.9993926,-0.00029543863,-0.034846842,6.3712685e-07,-0.99996394,0.008496171,0.4261678955078125,0.11013327636718749,11.303026037597656,0.612827,0.0,17.644638,0.006134033
-0.080205206847373,0.009725880564548555,-0.0009326186842717792,-0.07526766,0.0150804445,-0.0030110267,0.034848094,0.008491032,0.99935657,0.9993926,-0.00029543863,-0.034846842,6.3712685e-07,-0.99996394,0.008496171,0.36391865234375,0.13407529296874998,11.319785449218749,0.6150593,0.0,17.714073,0.006134033
-0.08060490056920376,0.0095926493239383,-0.0019984686091538122,-0.07526766,0.0150804445,-0.0030110267,0.034848094,0.008491032,0.99935657,0.9993926,-0.00029543863,-0.034846842,6.3712685e-07,-0.99996394,0.008496171,0.40940848388671874,0.09337386474609374,11.188104357910156,0.617555,0.0,17.782274,0.006095886
-0.07993874436615249,0.0095926493239383,0.0006661562030512709,-0.07526766,0.0150804445,-0.0030110267,0.034848094,0.008491032,0.99935657,0.9993926,-0.00029543863,-0.034846842,6.3712685e-07,-0.99996394,0.008496171,0.3950432739257812,0.15562310791015624,11.192892761230468,0.61996615,0.0,17.85059,0.0061035156
-0.08087136305042428,0.011591117933092112,-0.0014655436467127959,-0.07526766,0.0150804445,-0.0030110267,0.034848094,0.008491032,0.99935657,0.9993926,-0.00029543863,-0.034846842,6.3712685e-07,-0.99996394,0.008496171,0.411802685546875,0.1292868896484375,11.281478222656249,0.6224827,0.0,17.919533,0.006111145
-0.07900612568188072,0.010258805526989571,-0.0010658499248820332,-0.07526766,0.0150804445,-0.0030110267,0.034848094,0.008491032,0.99935657,0.9993926,-0.00029543863,-0.034846842,6.3712685e-07,-0.99996394,0.008496171,0.38786066894531246,0.15322890625,11.3389390625,0.6250483,0.0,17.994535,0.006614685
-0.07967228188493199,0.009459418083328047,-0.003464012255866608,-0.07526766,0.0150804445,-0.0030110267,0.034848094,0.008491032,0.99935657,0.9993926,-0.00029543863,-0.034846842,6.3712685e-07,-0.99996394,0.008496171,0.39983167724609375,0.16998831787109375,11.1474029296875,0.6274978,0.0,18.062828,0.006126404
-0.07687442583211665,0.012656967857974145,-0.0035972434964768626,-0.07526766,0.0150804445,-0.0030110267,0.034848094,0.008491032,0.99935657,0.9993926,-0.00029543863,-0.034846842,6.3712685e-07,-0.99996394,0.008496171,0.3854664672851562,0.19871873779296872,11.243170996093749,0.6298505,0.0,18.13145,0.0061035156
-0.08060490056920376,0.01438897398590745,-0.0003996937218307625,-0.07526766,0.0150804445,-0.0030110267,0.034848094,0.008491032,0.99935657,0.9993926,-0.00029543863,-0.034846842,6.3712685e-07,-0.99996394,0.008496171,0.3016694091796875,0.09337386474609374,11.312602844238281,0.63169175,0.0,18.200497,0.0061035156
-0.07860643196004995,0.010924961730040842,0.0006661562030512709,-0.07526766,0.0150804445,-0.0030110267,0.034848094,0.008491032,0.99935657,0.9993926,-0.00029543863,-0.034846842,6.3712685e-07,-0.99996394,0.008496171,0.3854664672851562,-0.06703764648437499,11.250353601074218,0.6340415,0.0,18.269077,0.006095886
-0.07833996947882944,0.0063950995492922,-0.0019984686091538122,-0.07526766,0.0150804445,-0.0030110267,0.034848094,0.008491032,0.99935657,0.9993926,-0.00029543863,-0.034846842,6.3712685e-07,-0.99996394,0.008496171,0.3902548706054687,0.086191259765625,11.314997045898437,0.6364234,0.0,18.338139,0.0061035156
-0.08087136305042428,0.011058192970651094,-0.001732006127933304,-0.07526766,0.0150804445,-0.0030110267,0.034848094,0.008491032,0.99935657,0.9993926,-0.00029543863,-0.034846842,6.3712685e-07,-0.99996394,0.008496171,0.33518823242187495,-0.028730419921875,11.314997045898437,0.6384692,0.0,18.4072,0.0061035156
-0.08060490056920376,0.009059724361497283,-0.0030643185340358454,-0.07526766,0.0150804445,-0.0030110267,0.034848094,0.008491032,0.99935657,0.9993926,-0.00029543863,-0.034846842,6.3712685e-07,-0.99996394,0.008496171,0.36631285400390623,0.04548983154296875,11.3006318359375,0.6407162,0.0,18.476519,0.006134033
-0.07980551312554225,0.011724349173702367,-0.0039969372183076245,-0.07526766,0.0150804445,-0.0030110267,0.034848094,0.008491032,0.99935657,0.9993926,-0.00029543863,-0.034846842,6.3712685e-07,-0.99996394,0.008496171,0.3806780639648437,0.11013327636718749,11.312602844238281,0.6430455,0.0,18.545738,0.0061187744
-0.07714088831333717,0.01052526800821008,-0.003464012255866608,-0.07526766,0.0150804445,-0.0030110267,0.034848094,0.008491032,0.99935657,0.9993926,-0.00029543863,-0.034846842,6.3712685e-07,-0.99996394,0.008496171,0.430956298828125,0.19393033447265623,11.262324609375,0.645689,0.0,18.614822,0.006134033
-0.08260336917835759,0.013056661579804908,-0.00159877488732305,-0.07526766,0.0150804445,-0.0030110267,0.034848094,0.008491032,0.99935657,0.9993926,-0.00029543863,-0.034846842,6.3712685e-07,-0.99996394,0.008496171,0.3064578125,0.11731588134765625,11.2240173828125,0.6475782,0.0,18.684013,0.006164551
-0.07967228188493199,0.016254211354451008,-0.004663093421358896,-0.07526766,0.0150804445,-0.0030110267,0.034848094,0.008491032,0.99935657,0.9993926,-0.00029543863,-0.034846842,6.3712685e-07,-0.99996394,0.008496171,0.39743747558593745,0.143652099609375,11.2240173828125,0.6500252,0.0,18.753119,0.0061569214
-0.07927258816310122,0.013189892820415163,-0.005595712105630674,-0.07526766,0.0150804445,-0.0030110267,0.034848094,0.008491032,0.99935657,0.9993926,-0.00029543863,-0.034846842,6.3712685e-07,-0.99996394,0.008496171,0.3902548706054687,0.16759411621093748,11.188104357910156,0.65241605,0.0,18.821661,0.006126404
-0.08247013793774732,0.010791730489430587,-0.0019984686091538122,-0.07526766,0.0150804445,-0.0030110267,0.034848094,0.008491032,0.99935657,0.9993926,-0.00029543863,-0.034846842,6.3712685e-07,-0.99996394,0.008496171,0.3758896606445312,0.062249243164062495,11.298237634277344,0.6547218,0.0,18.890965,0.006134033
-0.0770076570727269,0.011990811654922875,-0.0031975497746461,-0.07526766,0.0150804445,-0.0030110267,0.034848094,0.008491032,0.99935657,0.9993926,-0.00029543863,-0.034846842,6.3712685e-07,-0.99996394,0.008496171,0.3854664672851562,0.0383072265625,11.164162341308593,0.65708625,0.0,18.959446,0.006134033
-0.07873966320066021,0.01212404289553313,-0.0011990811654922875,-0.07526766,0.0150804445,-0.0030110267,0.034848094,0.008491032,0.99935657,0.9993926,-0.00029543863,-0.034846842,6.3712685e-07,-0.99996394,0.008496171,0.3758896606445312,0.031124621582031248,11.250353601074218,0.65939486,0.0,19.028542,0.0061416626
-0.08047166932859352,0.011191424211261349,-0.0037304747370871167,-0.07526766,0.0150804445,-0.0030110267,0.034848094,0.008491032,0.99935657,0.9993926,-0.00029543863,-0.034846842,6.3712685e-07,-0.99996394,0.008496171,0.41898529052734373,0.086191259765625,11.214440576171874,0.6621759,0.0,19.102978,0.0066375732
-0.07780704451638844,0.009059724361497283,0.0,-0.07526766,0.0150804445,-0.0030110267,0.034848094,0.008491032,0.99935657,0.9993926,-0.00029543863,-0.034846842,6.3712685e-07,-0.99996394,0.008496171,0.43574470214843747,0.0526724365234375,11.250353601074218,0.6648421,0.0,19.171816,0.0061187744
-0.07980551312554225,0.010791730489430587,-0.0013323124061025418,-0.07526766,0.0150804445,-0.0030110267,0.034848094,0.008491032,0.99935657,0.9993926,-0.00029543863,-0.034846842,6.3712685e-07,-0.99996394,0.008496171,0.40462008056640625,0.1197100830078125,11.259930407714844,0.6673148,0.0,19.240627,0.006111145
-0.08207044421591657,0.0063950995492922,-0.004130168458917879,-0.07526766,0.0150804445,-0.0030110267,0.034848094,0.008491032,0.99935657,0.9993926,-0.00029543863,-0.034846842,6.3712685e-07,-0.99996394,0.008496171,0.40940848388671874,0.20829554443359374,11.200075366210937,0.6698168,0.0012729242,19.309072,0.006111145
-0.08300306290018834,0.013056661579804908,-0.005062787143189658,-0.07526766,0.0150804445,-0.0030110267,0.034848094,0.008491032,0.99935657,0.9993926,-0.00029543863,-0.034846842,6.3712685e-07,-0.99996394,0.008496171,0.373495458984375,0.15562310791015624,11.121066711425781,0.67209643,0.0012729242,19.37695,0.0061035156
-0.08073813180981403,0.007860643196004996,-0.0029310872934255917,-0.07526766,0.0150804445,-0.0030110267,0.034848094,0.008491032,0.99935657,0.9993926,-0.00029543863,-0.034846842,6.3712685e-07,-0.99996394,0.008496171,0.3758896606445312,0.06943184814453125,11.192892761230468,0.6743907,0.0012729242,19.445265,0.0061035156
-0.07847320071943971,0.01345635530163567,-0.0019984686091538122,-0.07526766,0.0150804445,-0.0030110267,0.034848094,0.008491032,0.99935657,0.9993926,-0.00029543863,-0.034846842,6.3712685e-07,-0.99996394,0.008496171,0.36152445068359373,0.06943184814453125,11.228805786132812,0.6766,0.0012729242,19.513885,0.006111145
-0.08073813180981403,0.01212404289553313,-0.0029310872934255917,-0.07526766,0.0150804445,-0.0030110267,0.034848094,0.008491032,0.99935657,0.9993926,-0.00029543863,-0.034846842,6.3712685e-07,-0.99996394,0.008496171,0.354341845703125,0.04548983154296875,11.25514200439453,0.67876,0.0012729242,19.582495,0.006095886
-0.08127105677225505,0.011324655451871604,-0.005062787143189658,-0.07526766,0.0150804445,-0.0030110267,0.034848094,0.008491032,0.99935657,0.9993926,-0.00029543863,-0.034846842,6.3712685e-07,-0.99996394,0.008496171,0.35194764404296874,0.05746083984375,11.314997045898437,0.6809162,0.0012729242,19.651815,0.006126404
-0.080205206847373,0.007993874436615249,-0.002264931090374321,-0.07526766,0.0150804445,-0.0030110267,0.034848094,0.008491032,0.99935657,0.9993926,-0.00029543863,-0.034846842,6.3712685e-07,-0.99996394,0.008496171,0.35673604736328124,0.0909796630859375,11.221623181152344,0.68310714,0.0012729242,19.720736,0.0061416626
-0.08100459429103453,0.011324655451871604,-0.0005329249624410166,-0.07526766,0.0150804445,-0.0030110267,0.034848094,0.008491032,0.99935657,0.9993926,-0.00029543863,-0.034846842,6.3712685e-07,-0.99996394,0.008496171,0.37828386230468747,0.1005564697265625,11.252747802734374,0.6854131,0.0012729242,19.789331,0.006095886
-0.08113782553164478,0.013323124061025418,-0.0003996937218307625,-0.07526766,0.0150804445,-0.0030110267,0.034848094,0.008491032,0.99935657,0.9993926,-0.00029543863,-0.034846842,6.3712685e-07,-0.99996394,0.008496171,0.36631285400390623,0.12449848632812499,11.250353601074218,0.6876601,0.0012729242,19.858341,0.006134033
-0.08047166932859352,0.009192955602107537,0.000799387443661525,-0.07526766,0.0150804445,-0.0030110267,0.034848094,0.008491032,0.99935657,0.9993926,-0.00029543863,-0.034846842,6.3712685e-07,-0.99996394,0.008496171,0.4165910888671875,0.1197100830078125,11.247959399414063,0.69021547,0.0012729242,19.927336,0.006134033
-0.08100459429103453,0.01212404289553313,0.0010658499248820332,-0.07526766,0.0150804445,-0.0030110267,0.034848094,0.008491032,0.99935657,0.9993926,-0.00029543863,-0.034846842,6.3712685e-07,-0.99996394,0.008496171,0.316034619140625,0.17238251953125,11.202469567871093,0.6921444,0.0012729242,19.99571,0.0061035156
-0.08260336917835759,0.010258805526989571,-0.000799387443661525,-0.07526766,0.0150804445,-0.0030110267,0.034848094,0.008491032,0.99935657,0.9993926,-0.00029543863,-0.034846842,6.3712685e-07,-0.99996394,0.008496171,0.39743747558593745,0.11013327636718749,11.188104357910156,0.69456714,0.0012729242,20.063911,0.006095886
-0.07980551312554225,0.01052526800821008,-0.002531393571594829,-0.07526766,0.0150804445,-0.0030110267,0.034848094,0.008491032,0.99935657,0.9993926,-0.00029543863,-0.034846842,6.3712685e-07,-0.99996394,0.008496171,0.39743747558593745,0.0526724365234375,11.245565197753905,0.697002,0.0012729242,20.132807,0.006126404
-0.08193721297530632,0.008793261880276773,-0.00159877488732305,-0.07526766,0.0150804445,-0.0030110267,0.034848094,0.008491032,0.99935657,0.9993926,-0.00029543863,-0.034846842,6.3712685e-07,-0.99996394,0.008496171,0.3711012573242187,0.04548983154296875,11.259930407714844,0.69944537,0.0012729242,20.206944,0.0065841675
-0.07953905064432175,0.012523736617363892,-0.007727411955394742,-0.07526766,0.0150804445,-0.0030110267,0.034848094,0.008491032,0.99935657,0.9993926,-0.00029543863,-0.034846842,6.3712685e-07,-0.99996394,0.008496171,0.36631285400390623,0.047884033203124995,11.353304272460937,0.70169514,0.0012729242,20.276672,0.0061416626
-0.07873966320066021,0.009192955602107537,-0.000799387443661525,-0.07526766,0.0150804445,-0.0030110267,0.034848094,0.008491032,0.99935657,0.9993926,-0.00029543863,-0.034846842,6.3712685e-07,-0.99996394,0.008496171,0.4285620971679687,0.08140285644531249,11.197681164550781,0.7043109,0.0012729242,20.345018,0.0061035156
-0.08353598786262936,0.008926493120887028,0.0,-0.07526766,0.0150804445,-0.0030110267,0.034848094,0.008491032,0.99935657,0.9993926,-0.00029543863,-0.034846842,6.3712685e-07,-0.99996394,0.008496171,0.43574470214843747,0.11252747802734374,11.087547888183593,0.7069671,0.0012729242,20.412607,0.006095886
-0.08220367545652682,0.008926493120887028,0.001732006127933304,-0.07526766,0.0150804445,-0.0030110267,0.034848094,0.008491032,0.99935657,0.9993926,-0.00029543863,-0.034846842,6.3712685e-07,-0.99996394,0.008496171,0.36391865234375,0.12689268798828124,11.202469567871093,0.7091883,0.0012729242,20.480982,0.0061035156
-0.07847320071943971,0.006794793271122962,-0.0033307810152563544,-0.07526766,0.0150804445,-0.0030110267,0.034848094,0.008491032,0.99935657,0.9993926,-0.00029543863,-0.034846842,6.3712685e-07,-0.99996394,0.008496171,0.3950432739257812,0.143652099609375,11.18571015625,0.7116175,0.0012729242,20.549767,0.006149292
-0.08007197560676275,0.013323124061025418,-0.008127105677225504,-0.07526766,0.0150804445,-0.0030110267,0.034848094,0.008491032,0.99935657,0.9993926,-0.00029543863,-0.034846842,6.3712685e-07,-0.99996394,0.008496171,0.38307226562499996,0.08379705810546874,11.190498559570312,0.71395564,0.0012729242,20.618069,0.0061035156
-0.08007197560676275,0.013056661579804908,0.00159877488732305,-0.07526766,0.0150804445,-0.0030110267,0.034848094,0.008491032,0.99935657,0.9993926,-0.00029543863,-0.034846842,6.3712685e-07,-0.99996394,0.008496171,0.3950432739257812,0.05746083984375,11.154585534667968,0.7163758,0.0012729242,20.686407,0.006126404
-0.07794027575699868,0.010658499248820334,-0.004263399699528133,-0.07526766,0.0150804445,-0.0030110267,0.034848094,0.008491032,0.99935657,0.9993926,-0.00029543863,-0.034846842,6.3712685e-07,-0.99996394,0.008496171,0.38307226562499996,0.08379705810546874,11.276689819335937,0.718711,0.0012729242,20.755148,0.006095886
-0.07873966320066021,0.009725880564548555,-0.002531393571594829,-0.07526766,0.0150804445,-0.0030110267,0.034848094,0.008491032,0.99935657,0.9993926,-0.00029543863,-0.034846842,6.3712685e-07,-0.99996394,0.008496171,0.40222587890625,0.04548983154296875,11.207257971191405,0.7211783,0.0012729242,20.823895,0.006134033
-0.08113782553164478,0.009192955602107537,-0.004929555902579405,-0.07526766,0.0150804445,-0.0030110267,0.034848094,0.008491032,0.99935657,0.9993926,-0.00029543863,-0.034846842,6.3712685e-07,-0.99996394,0.008496171,0.4070142822265625,0.03591302490234375,11.269507214355468,0.7236594,0.0012729242,20.892591,0.006095886
-0.07953905064432175,0.009992343045769061,-0.0018652373685435584,-0.07526766,0.0150804445,-0.0030110267,0.034848094,0.008491032,0.99935657,0.9993926,-0.00029543863,-0.034846842,6.3712685e-07,-0.99996394,0.008496171,0.3854664672851562,0.05746083984375,11.190498559570312,0.7260268,0.0012729242,20.961319,0.0061416626
-0.07913935692249098,0.013589586542245924,-0.0033307810152563544,-0.07526766,0.0150804445,-0.0030110267,0.034848094,0.008491032,0.99935657,0.9993926,-0.00029543863,-0.034846842,6.3712685e-07,-0.99996394,0.008496171,0.37828386230468747,0.1005564697265625,11.2240173828125,0.72833854,0.0012729242,21.029911,0.006111145
-0.080205206847373,0.011724349173702367,0.0002664624812205083,-0.07526766,0.0150804445,-0.0030110267,0.034848094,0.008491032,0.99935657,0.9993926,-0.00029543863,-0.034846842,6.3712685e-07,-0.99996394,0.008496171,0.373495458984375,0.105344873046875,11.128249316406249,0.7306239,0.0012729242,21.098001,0.0061187744
-0.08127105677225505,0.008793261880276773,-0.0010658499248820332,-0.07526766,0.0150804445,-0.0030110267,0.034848094,0.008491032,0.99935657,0.9993926,-0.00029543863,-0.034846842,6.3712685e-07,-0.99996394,0.008496171,0.40940848388671874,0.19393033447265623,11.2240173828125,0.7331227,0.0012729242,21.166508,0.0061035156
-0.07580857590723461,0.013189892820415163,-0.0030643185340358454,-0.07526766,0.0150804445,-0.0030110267,0.034848094,0.008491032,0.99935657,0.9993926,-0.00029543863,-0.034846842,6.3712685e-07,-0.99996394,0.008496171,0.3854664672851562,0.1005564697265625,11.14022032470703,0.73547244,0.0012729242,21.234417,0.006095886
-0.07967228188493199,0.01052526800821008,-0.004663093421358896,-0.07526766,0.0150804445,-0.0030110267,0.034848094,0.008491032,0.99935657,0.9993926,-0.00029543863,-0.034846842,6.3712685e-07,-0.99996394,0.008496171,0.430956298828125,0.105344873046875,11.259930407714844,0.73810935,0.0012729242,21.303314,0.0061187744
-0.07847320071943971,0.01212404289553313,-0.0011990811654922875,-0.07526766,0.0150804445,-0.0030110267,0.034848094,0.008491032,0.99935657,0.9993926,-0.00029543863,-0.034846842,6.3712685e-07,-0.99996394,0.008496171,0.38786066894531246,0.086191259765625,11.228805786132812,0.74049145,0.0012729242,21.372278,0.0061416626
-0.08207044421591657,0.011058192970651094,0.0,-0.07526766,0.0150804445,-0.0030110267,0.034848094,0.008491032,0.99935657,0.9993926,-0.00029543863,-0.034846842,6.3712685e-07,-0.99996394,0.008496171,0.36391865234375,0.06703764648437499,11.137826123046874,0.7427126,0.0012729242,21.440258,0.0061035156
-0.08007197560676275,0.008926493120887028,-0.0009326186842717792,-0.07526766,0.0150804445,-0.0030110267,0.034848094,0.008491032,0.99935657,0.9993926,-0.00029543863,-0.034846842,6.3712685e-07,-0.99996394,0.008496171,0.38786066894531246,0.0383072265625,11.221623181152344,0.7450947,0.0012729242,21.509178,0.0061416626
-0.07913935692249098,0.008260336917835759,0.002398162330984575,-0.07526766,0.0150804445,-0.0030110267,0.034848094,0.008491032,0.99935657,0.9993926,-0.00029543863,-0.034846842,6.3712685e-07,-0.99996394,0.008496171,0.40940848388671874,0.1149216796875,11.247959399414063,0.74760604,0.0012729242,21.578173,0.006134033
-0.08247013793774732,0.013056661579804908,-0.0013323124061025418,-0.07526766,0.0150804445,-0.0030110267,0.034848094,0.008491032,0.99935657,0.9993926,-0.00029543863,-0.034846842,6.3712685e-07,-0.99996394,0.008496171,0.45968671875,0.09337386474609374,11.281478222656249,0.75040823,0.0012729242,21.646944,0.006095886
-0.08100459429103453,0.0095926493239383,-0.004396630940138387,-0.07526766,0.0150804445,-0.0030110267,0.034848094,0.008491032,0.99935657,0.9993926,-0.00029543863,-0.034846842,6.3712685e-07,-0.99996394,0.008496171,0.3495534423828125,0.1292868896484375,11.173739147949219,0.7525391,0.0012729242,21.715057,0.006095886
-0.08566768771239343,0.011457886692481857,-0.000799387443661525,-0.07526766,0.0150804445,-0.0030110267,0.034848094,0.008491032,0.99935657,0.9993926,-0.00029543863,-0.034846842,6.3712685e-07,-0.99996394,0.008496171,0.40462008056640625,0.17477672119140625,11.262324609375,0.7550118,0.0012729242,21.783882,0.006111145
-0.08033843808798326,0.011591117933092112,0.0003996937218307625,-0.07526766,0.0150804445,-0.0030110267,0.034848094,0.008491032,0.99935657,0.9993926,-0.00029543863,-0.034846842,6.3712685e-07,-0.99996394,0.008496171,0.40462008056640625,0.1388636962890625,11.18571015625,0.75749993,0.0012729242,21.852667,0.006149292
-0.08273660041896783,0.011324655451871604,-0.0018652373685435584,-0.07526766,0.0150804445,-0.0030110267,0.034848094,0.008491032,0.99935657,0.9993926,-0.00029543863,-0.034846842,6.3712685e-07,-0.99996394,0.008496171,0.4070142822265625,0.011971008300781249,11.204863769531249,0.7599997,0.0012729242,21.921484,0.0061416626
-0.08233690669713707,0.011191424211261349,-0.003863705977697371,-0.07526766,0.0150804445,-0.0030110267,0.034848094,0.008491032,0.99935657,0.9993926,-0.00029543863,-0.034846842,6.3712685e-07,-0.99996394,0.008496171,0.35194764404296874,0.07422025146484375,11.29344923095703,0.7621451,0.0012729242,21.990328,0.006095886
-0.08286983165957809,0.011191424211261349,-0.0019984686091538122,-0.07526766,0.0150804445,-0.0030110267,0.034848094,0.008491032,0.99935657,0.9993926,-0.00029543863,-0.034846842,6.3712685e-07,-0.99996394,0.008496171,0.34237083740234375,0.016759411621093748,11.233594189453123,0.7642426,0.0012729242,22.059149,0.006126404
-0.08047166932859352,0.011324655451871604,-0.0021316998497640663,-0.07526766,0.0150804445,-0.0030110267,0.034848094,0.008491032,0.99935657,0.9993926,-0.00029543863,-0.034846842,6.3712685e-07,-0.99996394,0.008496171,0.2825157958984375,0.06464344482421874,11.2240173828125,0.7659734,0.0012729242,22.127913,0.006126404
-0.08233690669713707,0.012923430339194655,-0.004929555902579405,-0.07526766,0.0150804445,-0.0030110267,0.034848094,0.008491032,0.99935657,0.9993926,-0.00029543863,-0.034846842,6.3712685e-07,-0.99996394,0.008496171,0.3687070556640625,0.055066638183593745,11.314997045898437,0.7682238,0.0012729242,22.196974,0.0061035156
-0.07540888218540386,0.01212404289553313,-0.0021316998497640663,-0.07526766,0.0150804445,-0.0030110267,0.034848094,0.008491032,0.99935657,0.9993926,-0.00029543863,-0.034846842,6.3712685e-07,-0.99996394,0.008496171,0.296881005859375,0.1005564697265625,11.171344946289063,0.77003133,0.0012729242,22.264988,0.006088257
-0.08033843808798326,0.01185758041431262,0.0009326186842717792,-0.07526766,0.0150804445,-0.0030110267,0.034848094,0.008491032,0.99935657,0.9993926,-0.00029543863,-0.034846842,6.3712685e-07,-0.99996394,0.008496171,0.39264907226562495,0.09576806640624999,11.250353601074218,0.7726406,0.0012729242,22.339748,0.0066452026
-0.08127105677225505,0.01572128639200999,-0.0003996937218307625,-0.07526766,0.0150804445,-0.0030110267,0.034848094,0.008491032,0.99935657,0.9993926,-0.00029543863,-0.034846842,6.3712685e-07,-0.99996394,0.008496171,0.3902548706054687,0.1484405029296875,11.17852755126953,0.77502847,0.0012729242,22.408148,0.0061187744
-0.08500153150934216,0.010924961730040842,0.0003996937218307625,-0.07526766,0.0150804445,-0.0030110267,0.034848094,0.008491032,0.99935657,0.9993926,-0.00029543863,-0.034846842,6.3712685e-07,-0.99996394,0.008496171,0.4572925170898437,0.09576806640624999,11.240776794433593,0.77781606,0.0012729242,22.476671,0.006095886
-0.08193721297530632,0.012923430339194655,-0.000799387443661525,-0.07526766,0.0150804445,-0.0030110267,0.034848094,0.008415844,0.9993572,0.9993926,-0.0002928169,-0.034846865,6.3712685e-07,-0.9999646,0.008420938,0.39264907226562495,0.14125789794921875,11.228805786132812,0.78022456,0.0012729242,22.54555,0.006134033
-0.07900612568188072,0.013589586542245924,-0.0018652373685435584,-0.07526766,0.0150804445,-0.0030110267,0.034848094,0.008353221,0.99935776,0.9993926,-0.00029063327,-0.034846883,6.3712685e-07,-0.99996513,0.008358276,0.4477157104492187,0.07900865478515624,11.312602844238281,0.7829572,0.0012729242,22.614595,0.0061035156
-0.08300306290018834,0.009725880564548555,-0.0029310872934255917,-0.07526766,0.0150804445,-0.0030110267,0.034848094,0.008353221,0.99935776,0.9993926,-0.00029063327,-0.034846883,6.3712685e-07,-0.99996513,0.008358276,0.4261678955078125,0.0430956298828125,11.212046374511718,0.7855518,0.0012729242,22.682858,0.006088257
-0.07953905064432175,0.007860643196004996,-0.002398162330984575,-0.07526766,0.0150804445,-0.0030110267,0.034848094,0.008353221,0.99935776,0.9993926,-0.00029063327,-0.034846883,6.3712685e-07,-0.99996513,0.008358276,0.4429273071289062,0.033518823242187495,11.207257971191405,0.7882552,0.0012729242,22.75126,0.0061035156
-0.07873966320066021,0.006794793271122962,-0.00013323124061025415,-0.07526766,0.0150804445,-0.0030110267,0.034848094,0.008353221,0.99935776,0.9993926,-0.00029063327,-0.034846883,6.3712685e-07,-0.99996513,0.008358276,0.430956298828125,0.14125789794921875,11.116278308105468,0.79089874,0.0012729242,22.819448,0.006134033
-0.07780704451638844,0.008260336917835759,-0.0014655436467127959,-0.07526766,0.0150804445,-0.0030110267,0.034848094,0.008353221,0.99935776,0.9993926,-0.00029063327,-0.034846883,6.3712685e-07,-0.99996513,0.008358276,0.4285620971679687,0.06464344482421874,11.267113012695312,0.79351777,0.0012729242,22.888304,0.006111145
-0.08047166932859352,0.011191424211261349,-0.0014655436467127959,-0.07526766,0.0150804445,-0.0030110267,0.034848094,0.008353221,0.99935776,0.9993926,-0.00029063327,-0.034846883,6.3712685e-07,-0.99996513,0.008358276,0.4477157104492187,0.1005564697265625,11.207257971191405,0.796247,0.0012729242,22.956621,0.006095886
-0.07953905064432175,0.009459418083328047,-0.006794793271122962,-0.07526766,0.0150804445,-0.0030110267,0.034848094,0.008353221,0.99935776,0.9993926,-0.00029063327,-0.034846883,6.3712685e-07,-0.99996513,0.008358276,0.3854664672851562,0.08379705810546874,11.307814440917968,0.7985997,0.0012729242,23.025639,0.0061035156
-0.07940581940371148,0.0063950995492922,-0.004396630940138387,-0.07526766,0.0150804445,-0.0030110267,0.034848094,0.008353221,0.99935776,0.9993926,-0.00029063327,-0.034846883,6.3712685e-07,-0.99996513,0.008358276,0.3854664672851562,0.105344873046875,11.247959399414063,0.80095243,0.0012729242,23.09429,0.0061035156
-0.07980551312554225,0.010924961730040842,-0.003464012255866608,-0.07526766,0.0150804445,-0.0030110267,0.034848094,0.008353221,0.99935776,0.9993926,-0.00029063327,-0.034846883,6.3712685e-07,-0.99996513,0.008358276,0.36631285400390623,0.08140285644531249,11.195286962890624,0.8031882,0.0012729242,23.16262,0.0061035156
-0.08393568158446013,0.014255742745297196,-0.0037304747370871167,-0.07526766,0.0150804445,-0.0030110267,0.034848094,0.008353221,0.99935776,0.9993926,-0.00029063327,-0.034846883,6.3712685e-07,-0.99996513,0.008358276,0.3902548706054687,0.08858546142578125,11.212046374511718,0.8055701,0.0012729242,23.231054,0.0061035156
-0.07833996947882944,0.01185758041431262,0.0002664624812205083,-0.07526766,0.0150804445,-0.0030110267,0.034848094,0.008353221,0.99935776,0.9993926,-0.00029063327,-0.034846883,6.3712685e-07,-0.99996513,0.008358276,0.3280056274414062,0.15083470458984374,11.353304272460937,0.80757964,0.0012729242,23.30061,0.006126404
-0.07900612568188072,0.01212404289553313,-0.0073277182335639785,-0.07526766,0.0150804445,-0.0030110267,0.034848094,0.008353221,0.99935776,0.9993926,-0.00029063327,-0.034846883,6.3712685e-07,-0.99996513,0.008358276,0.277727392578125,0.086191259765625,11.267113012695312,0.8092832,0.0012729242,23.369722,0.006134033
-0.08207044421591657,0.007993874436615249,-0.0011990811654922875,-0.07526766,0.0150804445,-0.0030110267,0.034848094,0.008353221,0.99935776,0.9993926,-0.00029063327,-0.034846883,6.3712685e-07,-0.99996513,0.008358276,0.3184288208007812,0.0,11.240776794433593,0.81139195,0.0012729242,23.444162,0.0066223145
-0.07940581940371148,0.011324655451871604,-0.0002664624812205083,-0.07526766,0.0150804445,-0.0030110267,0.034848094,0.008353221,0.99935776,0.9993926,-0.00029063327,-0.034846883,6.3712685e-07,-0.99996513,0.008358276,0.34715924072265625,0.07900865478515624,11.233594189453123,0.81352675,0.0012729242,23.51324,0.006149292
-0.07847320071943971,0.010791730489430587,-0.000799387443661525,-0.07526766,0.0150804445,-0.0030110267,0.034848094,0.008353221,0.99935776,0.9993926,-0.00029063327,-0.034846883,6.3712685e-07,-0.99996513,0.008358276,0.35673604736328124,0.1292868896484375,11.14022032470703,0.81571496,0.0012729242,23.581575,0.006134033
-0.07913935692249098,0.011058192970651094,-0.002797856052815337,-0.07526766,0.0150804445,-0.0030110267,0.034848094,0.008353221,0.99935776,0.9993926,-0.00029063327,-0.034846883,6.3712685e-07,-0.99996513,0.008358276,0.40222587890625,0.16041151123046873,11.25514200439453,0.8181761,0.0012729242,23.650442,0.0061187744
-0.08260336917835759,0.010924961730040842,-0.0031975497746461,-0.07526766,0.0150804445,-0.0030110267,0.034848094,0.008353221,0.99935776,0.9993926,-0.00029063327,-0.034846883,6.3712685e-07,-0.99996513,0.008358276,0.38786066894531246,0.13407529296874998,11.243170996093749,0.8205612,0.0012729242,23.71958,0.006149292
-0.08100459429103453,0.011990811654922875,-0.0009326186842717792,-0.07526766,0.0150804445,-0.0030110267,0.034848094,0.008353221,0.99935776,0.9993926,-0.00029063327,-0.034846883,6.3712685e-07,-0.99996513,0.008358276,0.38307226562499996,0.07900865478515624,11.303026037597656,0.82290804,0.0012729242,23.788826,0.006126404
-0.08193721297530632,0.011058192970651094,-0.0003996937218307625,-0.07526766,0.0150804445,-0.0030110267,0.034848094,0.008353221,0.99935776,0.9993926,-0.00029063327,-0.034846883,6.3712685e-07,-0.99996513,0.008358276,0.46686932373046874,0.02633621826171875,11.200075366210937,0.8257683,0.0012729242,23.857443,0.006126404
-0.08220367545652682,0.009725880564548555,-0.0011990811654922875,-0.07526766,0.0150804445,-0.0030110267,0.034848094,0.008353221,0.99935776,0.9993926,-0.00029063327,-0.034846883,6.3712685e-07,-0.99996513,0.008358276,0.43574470214843747,0.0909796630859375,11.190498559570312,0.82844114,0.0012729242,23.926086,0.006134033
-0.08260336917835759,0.010258805526989571,0.0011990811654922875,-0.07526766,0.0150804445,-0.0030110267,0.034848094,0.008353221,0.99935776,0.9993926,-0.00029063327,-0.034846883,6.3712685e-07,-0.99996513,0.008358276,0.4644751220703125,0.0909796630859375,11.264718811035156,0.83127606,0.0012729242,23.99484,0.0061035156
-0.08060490056920376,0.009992343045769061,-0.0026646248122050836,-0.07526766,0.0150804445,-0.0030110267,0.034848094,0.008353221,0.99935776,0.9993926,-0.00029063327,-0.034846883,6.3712685e-07,-0.99996513,0.008358276,0.469263525390625,0.04548983154296875,11.257536206054686,0.8341617,0.0012729242,24.064066,0.006149292
-0.08007197560676275,0.009725880564548555,-0.0037304747370871167,-0.07526766,0.0150804445,-0.0030110267,0.034848094,0.008353221,0.99935776,0.9993926,-0.00029063327,-0.034846883,6.3712685e-07,-0.99996513,0.008358276,0.373495458984375,0.031124621582031248,11.176133349609374,0.83644706,0.0012729242,24.13245,0.0061187744
-0.07913935692249098,0.008393568158446012,-0.0005329249624410166,-0.07526766,0.0150804445,-0.0030110267,0.034848094,0.008353221,0.99935776,0.9993926,-0.00029063327,-0.034846883,6.3712685e-07,-0.99996513,0.008358276,0.373495458984375,0.1580173095703125,11.228805786132812,0.8387381,0.0012729242,24.201328,0.006134033
-0.07580857590723461,0.010658499248820334,-0.002264931090374321,-0.07526766,0.0150804445,-0.0030110267,0.034848094,0.008353221,0.99935776,0.9993926,-0.00029063327,-0.034846883,6.3712685e-07,-0.99996513,0.008358276,0.37828386230468747,0.105344873046875,11.209652172851563,0.84104985,0.0012729242,24.269833,0.006111145
-0.07727411955394742,0.012257274136143382,-0.0009326186842717792,-0.07526766,0.0150804445,-0.0030110267,0.034848094,0.008353221,0.99935776,0.9993926,-0.00029063327,-0.034846883,6.3712685e-07,-0.99996513,0.008358276,0.3591302490234375,0.13407529296874998,11.183315954589844,0.8432418,0.0012729242,24.33809,0.0061035156
-0.08220367545652682,0.013189892820415163,-0.0002664624812205083,-0.07526766,0.0150804445,-0.0030110267,0.034848094,0.008353221,0.99935776,0.9993926,-0.00029063327,-0.034846883,6.3712685e-07,-0.99996513,0.008358276,0.3447650390625,0.105344873046875,11.21683477783203,0.84535396,0.0012729242,24.406809,0.006126404
-0.07847320071943971,0.011324655451871604,-0.0031975497746461,-0.07526766,0.0150804445,-0.0030110267,0.034848094,0.008353221,0.99935776,0.9993926,-0.00029063327,-0.034846883,6.3712685e-07,-0.99996513,0.008358276,0.35673604736328124,0.06943184814453125,11.180921752929686,0.8475531,0.0012729242,24.475735,0.006164551
-0.0814042880128653,0.011058192970651094,-0.002264931090374321,-0.07526766,0.0150804445,-0.0030110267,0.034848094,0.008353221,0.99935776,0.9993926,-0.00029063327,-0.034846883,6.3712685e-07,-0.99996513,0.008358276,0.33758243408203126,0.04548983154296875,11.240776794433593,0.84979635,0.0012729242,24.550432,0.0066452026
-0.08300306290018834,0.010392036767599824,-0.0014655436467127959,-0.07526766,0.0150804445,-0.0030110267,0.034848094,0.008353221,0.99935776,0.9993926,-0.00029063327,-0.034846883,6.3712685e-07,-0.99996513,0.008358276,0.2825157958984375,0.0430956298828125,11.238382592773437,0.85153145,0.0012729242,24.619455,0.0061416626
-0.07847320071943971,0.014122511504686942,-0.00159877488732305,-0.07526766,0.0150804445,-0.0030110267,0.034848094,0.008353221,0.99935776,0.9993926,-0.00029063327,-0.034846883,6.3712685e-07,-0.99996513,0.008358276,0.32082302246093747,0.0718260498046875,11.257536206054686,0.85350186,0.0012729242,24.688595,0.0061416626
-0.08180398173469605,0.00985911180515881,-0.0005329249624410166,-0.07526766,0.0150804445,-0.0030110267,0.034848094,0.008353221,0.99935776,0.9993926,-0.00029063327,-0.034846883,6.3712685e-07,-0.99996513,0.008358276,0.33039982910156246,0.08858546142578125,11.204863769531249,0.85551846,0.0012729242,24.756985,0.0061035156
-0.08047166932859352,0.01212404289553313,-0.0009326186842717792,-0.07526766,0.0150804445,-0.0030110267,0.034848094,0.008353221,0.99935776,0.9993926,-0.00029063327,-0.034846883,6.3712685e-07,-0.99996513,0.008358276,0.36152445068359373,0.02633621826171875,11.257536206054686,0.8577333,0.0012729242,24.825953,0.006126404
-0.0767411945915064,0.011191424211261349,-0.0009326186842717792,-0.07526766,0.0150804445,-0.0030110267,0.034848094,0.008353221,0.99935776,0.9993926,-0.00029063327,-0.034846883,6.3712685e-07,-0.99996513,0.008358276,0.373495458984375,0.08140285644531249,11.154585534667968,0.8600272,0.0012729242,24.89446,0.0061416626
-0.07900612568188072,0.010791730489430587,0.0002664624812205083,-0.07526766,0.0150804445,-0.0030110267,0.034848094,0.008353221,0.99935776,0.9993926,-0.00029063327,-0.034846883,6.3712685e-07,-0.99996513,0.008358276,0.4213794921875,0.1197100830078125,11.173739147949219,0.86259586,0.0012729242,24.962574,0.006095886
-0.08073813180981403,0.00985911180515881,-0.0005329249624410166,-0.07526766,0.0150804445,-0.0030110267,0.034848094,0.008353221,0.99935776,0.9993926,-0.00029063327,-0.034846883,6.3712685e-07,-0.99996513,0.008358276,0.41419688720703124,0.05027823486328125,11.286266625976562,0.86513656,0.0012729242,25.031805,0.006134033
-0.08047166932859352,0.010924961730040842,-0.0018652373685435584,-0.07526766,0.0150804445,-0.0030110267,0.034848094,0.008353221,0.99935776,0.9993926,-0.00029063327,-0.034846883,6.3712685e-07,-0.99996513,0.008358276,0.42377369384765623,0.13646949462890623,11.152191333007812,0.8677263,0.0012729242,25.099958,0.006111145
-0.0814042880128653,0.009725880564548555,0.0005329249624410166,-0.07526766,0.0150804445,-0.0030110267,0.034848094,0.008353221,0.99935776,0.9993926,-0.00029063327,-0.034846883,6.3712685e-07,-0.99996513,0.008358276,0.42377369384765623,0.06943184814453125,11.252747802734374,0.87034196,0.0012729242,25.169413,0.00617218
-0.08233690669713707,0.013056661579804908,-0.0013323124061025418,-0.07526766,0.0150804445,-0.0030110267,0.034848094,0.008353221,0.99935776,0.9993926,-0.00029063327,-0.034846883,6.3712685e-07,-0.99996513,0.008358276,0.3902548706054687,0.05985504150390625,11.190498559570312,0.8727358,0.0012729242,25.238056,0.006134033
-0.07860643196004995,0.007194486992953725,-0.0030643185340358454,-0.07526766,0.0150804445,-0.0030110267,0.034848094,0.008353221,0.99935776,0.9993926,-0.00029063327,-0.034846883,6.3712685e-07,-0.99996513,0.008358276,0.3758896606445312,0.0718260498046875,11.214440576171874,0.87503004,0.0012729242,25.306503,0.0061035156
-0.08033843808798326,0.009992343045769061,-0.0010658499248820332,-0.07526766,0.0150804445,-0.0030110267,0.034848094,0.008353221,0.99935776,0.9993926,-0.00029063327,-0.034846883,6.3712685e-07,-0.99996513,0.008358276,0.5003881469726562,0.04548983154296875,11.154585534667968,0.8780842,0.0012729242,25.374586,0.0061035156
-0.07887289444127048,0.006661562030512709,0.0002664624812205083,-0.07526766,0.0150804445,-0.0030110267,0.034848094,0.008353221,0.99935776,0.9993926,-0.00029063327,-0.034846883,6.3712685e-07,-0.99996513,0.008358276,0.3902548706054687,0.06943184814453125,11.264718811035156,0.88047206,0.0012729242,25.443512,0.0061187744
-0.08273660041896783,0.009725880564548555,-0.0009326186842717792,-0.07526766,0.0150804445,-0.0030110267,0.034848094,0.008353221,0.99935776,0.9993926,-0.00029063327,-0.034846883,6.3712685e-07,-0.99996513,0.008358276,0.4572925170898437,0.08858546142578125,11.195286962890624,0.8832806,0.0012729242,25.51227,0.0061416626
-0.07940581940371148,0.012923430339194655,-0.002797856052815337,-0.07526766,0.0150804445,-0.0030110267,0.034848094,0.008353221,0.99935776,0.9993926,-0.00029063327,-0.034846883,6.3712685e-07,-0.99996513,0.008358276,0.354341845703125,0.1005564697265625,11.247959399414063,0.8854541,0.0012729242,25.581264,0.006134033
-0.07780704451638844,0.01185758041431262,-0.0058621745868511835,-0.07526766,0.0150804445,-0.0030110267,0.034848094,0.008353221,0.99935776,0.9993926,-0.00029063327,-0.034846883,6.3712685e-07,-0.99996513,0.008358276,0.40462008056640625,0.105344873046875,11.264718811035156,0.8879299,0.0012729242,25.65019,0.0061187744
-0.07620826962906538,0.012923430339194655,-0.00479632466196915,-0.07526766,0.0150804445,-0.0030110267,0.034848094,0.008353221,0.99935776,0.9993926,-0.00029063327,-0.034846883,6.3712685e-07,-0.99996513,0.008358276,0.36631285400390623,0.181959326171875,11.247959399414063,0.8901769,0.0012729242,25.719185,0.006134033
-0.07794027575699868,0.011591117933092112,-0.0063950995492922,-0.07526766,0.0150804445,-0.0030110267,0.034848094,0.008353221,0.99935776,0.9993926,-0.00029063327,-0.034846883,6.3712685e-07,-0.99996513,0.008358276,0.37828386230468747,0.1197100830078125,11.305420239257812,0.89249444,0.0012729242,25.788446,0.006126404
-0.07740735079455767,0.007860643196004996,-0.002797856052815337,-0.07526766,0.0150804445,-0.0030110267,0.034848094,0.008353221,0.99935776,0.9993926,-0.00029063327,-0.034846883,6.3712685e-07,-0.99996513,0.008358276,0.3687070556640625,0.05746083984375,11.324573852539062,0.894742,0.0012729242,25.85748,0.006095886
-0.0831362941407986,0.013856049023466432,-0.0002664624812205083,-0.07526766,0.0150804445,-0.0030110267,0.034848094,0.008353221,0.99935776,0.9993926,-0.00029063327,-0.034846883,6.3712685e-07,-0.99996513,0.008358276,0.36631285400390623,0.11013327636718749,11.259930407714844,0.8969862,0.0012729242,25.926462,0.006126404
-0.07900612568188072,0.009192955602107537,-0.002398162330984575,-0.07526766,0.0150804445,-0.0030110267,0.034848094,0.008353221,0.99935776,0.9993926,-0.00029063327,-0.034846883,6.3712685e-07,-0.99996513,0.008358276,0.3327940307617187,0.12689268798828124,11.202469567871093,0.899025,0.0012729242,25.995092,0.006126404
-0.07913935692249098,0.012656967857974145,-0.0013323124061025418,-0.07526766,0.0150804445,-0.0030110267,0.034848094,0.008353221,0.99935776,0.9993926,-0.00029063327,-0.034846883,6.3712685e-07,-0.99996513,0.008358276,0.3687070556640625,0.05027823486328125,11.250353601074218,0.90127826,0.0012729242,26.063845,0.006111145
-0.07847320071943971,0.013056661579804908,-0.0005329249624410166,-0.07526766,0.0150804445,-0.0030110267,0.034848094,0.008353221,0.99935776,0.9993926,-0.00029063327,-0.034846883,6.3712685e-07,-0.99996513,0.008358276,0.3854664672851562,0.07422025146484375,11.228805786132812,0.9036368,0.0012729242,26.132551,0.0061187744
-0.08073813180981403,0.01345635530163567,0.0,-0.07526766,0.0150804445,-0.0030110267,0.034848094,0.008353221,0.99935776,0.9993926,-0.00029063327,-0.034846883,6.3712685e-07,-0.99996513,0.008358276,0.40462008056640625,0.0909796630859375,11.25514200439453,0.90611875,0.0012729242,26.201591,0.006134033
-0.08033843808798326,0.009992343045769061,0.0002664624812205083,-0.07526766,0.0150804445,-0.0030110267,0.034848094,0.008353221,0.99935776,0.9993926,-0.00029063327,-0.034846883,6.3712685e-07,-0.99996513,0.008358276,0.4213794921875,0.06464344482421874,11.212046374511718,0.9087035,0.0012729242,26.270367,0.006134033
-0.08180398173469605,0.01185758041431262,-0.002797856052815337,-0.07526766,0.0150804445,-0.0030110267,0.034848094,0.008353221,0.99935776,0.9993926,-0.00029063327,-0.034846883,6.3712685e-07,-0.99996513,0.008358276,0.4740519287109375,0.05746083984375,11.29344923095703,0.91159326,0.0012729242,26.33921,0.006095886
-0.08233690669713707,0.009725880564548555,0.0013323124061025418,-0.07526766,0.0150804445,-0.0030110267,0.034848094,0.008353221,0.99935776,0.9993926,-0.00029063327,-0.034846883,6.3712685e-07,-0.99996513,0.008358276,0.40462008056640625,0.04548983154296875,11.188104357910156,0.9140814,0.0012729242,26.408009,0.006149292
-0.08207044421591657,0.010125574286379316,-0.0039969372183076245,-0.07526766,0.0150804445,-0.0030110267,0.034848094,0.008353221,0.99935776,0.9993926,-0.00029063327,-0.034846883,6.3712685e-07,-0.99996513,0.008358276,0.40940848388671874,0.076614453125,11.257536206054686,0.9165927,0.0012729242,26.477062,0.006134033
-0.08353598786262936,0.01372281778285618,-0.002264931090374321,-0.07526766,0.0150804445,-0.0030110267,0.034848094,0.008353221,0.99935776,0.9993926,-0.00029063327,-0.034846883,6.3712685e-07,-0.99996513,0.008358276,0.37828386230468747,0.06703764648437499,11.252747802734374,0.9188987,0.0012729242,26.545658,0.006095886
-0.08540122523117291,0.007061255752343471,-0.0030643185340358454,-0.07526766,0.0150804445,-0.0030110267,0.034848094,0.008353221,0.99935776,0.9993926,-0.00029063327,-0.034846883,6.3712685e-07,-0.99996513,0.008358276,0.46686932373046874,0.05027823486328125,11.271901416015623,0.9217411,0.0012729242,26.614285,0.006088257
-0.08247013793774732,0.009725880564548555,-0.0021316998497640663,-0.07526766,0.0150804445,-0.0030110267,0.034848094,0.008353221,0.99935776,0.9993926,-0.00029063327,-0.034846883,6.3712685e-07,-0.99996513,0.008358276,0.36631285400390623,-0.011971008300781249,11.264718811035156,0.924167,0.0012729242,26.688883,0.0066223145
-0.07860643196004995,0.008260336917835759,-0.0037304747370871167,-0.07526766,0.0150804445,-0.0030110267,0.034848094,0.008353221,0.99935776,0.9993926,-0.00029063327,-0.034846883,6.3712685e-07,-0.99996513,0.008358276,0.373495458984375,0.13407529296874998,11.264718811035156,0.92645234,0.0012729242,26.757809,0.0061187744
-0.0816707504940858,0.011990811654922875,-0.0011990811654922875,-0.07526766,0.0150804445,-0.0030110267,0.034848094,0.008353221,0.99935776,0.9993926,-0.00029063327,-0.034846883,6.3712685e-07,-0.99996513,0.008358276,0.42377369384765623,0.14604630126953125,11.2240173828125,0.92904854,0.0012729242,26.826572,0.006126404
-0.08087136305042428,0.011457886692481857,-0.002797856052815337,-0.07526766,0.0150804445,-0.0030110267,0.034848094,0.008353221,0.99935776,0.9993926,-0.00029063327,-0.034846883,6.3712685e-07,-0.99996513,0.008358276,0.4165910888671875,0.06464344482421874,11.2240173828125,0.9315912,0.0012729242,26.895079,0.0061035156
-0.07940581940371148,0.008926493120887028,-0.0026646248122050836,-0.07526766,0.0150804445,-0.0030110267,0.034848094,0.008353221,0.99935776,0.9993926,-0.00029063327,-0.034846883,6.3712685e-07,-0.99996513,0.008358276,0.3687070556640625,0.076614453125,11.200075366210937,0.9338388,0.0012729242,26.963352,0.006095886
-0.08047166932859352,0.009725880564548555,-0.0039969372183076245,-0.07526766,0.0150804445,-0.0030110267,0.034848094,0.008353221,0.99935776,0.9993926,-0.00029063327,-0.034846883,6.3712685e-07,-0.99996513,0.008358276,0.39264907226562495,0.1197100830078125,11.2240173828125,0.9362353,0.0012729242,27.031858,0.0061035156
-0.08153751925347555,0.010392036767599824,-0.00013323124061025415,-0.07526766,0.0150804445,-0.0030110267,0.034848094,0.008353221,0.99935776,0.9993926,-0.00029063327,-0.034846883,6.3712685e-07,-0.99996513,0.008358276,0.3447650390625,0.076614453125,11.164162341308593,0.93833435,0.0012729242,27.099829,0.006088257
-0.07873966320066021,0.009725880564548555,0.0,-0.07526766,0.0150804445,-0.0030110267,0.034848094,0.008353221,0.99935776,0.9993926,-0.00029063327,-0.034846883,6.3712685e-07,-0.99996513,0.008358276,0.354341845703125,0.0909796630859375,11.228805786132812,0.9405106,0.0012729242,27.168793,0.0061416626
