GyroX,GyroY,GyroZ,NoiseX,NoiseY,NoiseZ,ExpGravityX,ExpGravityY,ExpGravityZ,ExpOxX,ExpOxY,ExpOxZ,ExpOyX,ExpOyY,ExpOyZ,AccX,AccY,AccZ,ExpSpeedX,ExpSpeedY,ExpSpeedZ,dT
-0.08127105677225505,0.014788667707738212,-0.007194486992953725,-0.079215966,0.011254707,-0.0043067,0.034331597,0.008719896,0.9993725,0.9994105,-0.00029954457,-0.034330294,0.0,-0.999962,0.00872504,0.36631285400390623,0.07422025146484375,11.288660827636718,0.001634926,0.0,0.050383504,0.004463196
-0.08273660041896783,0.013589586542245924,-0.004663093421358896,-0.079215966,0.011254707,-0.0043067,0.034331597,0.008719896,0.9993725,0.9994105,-0.00029954457,-0.034330294,0.0,-0.999962,0.00872504,0.39743747558593745,0.0718260498046875,11.192892761230468,0.0074840537,0.0,0.21511045,0.014717102
-0.08100459429103453,0.0073277182335639785,-0.00479632466196915,-0.079215966,0.011254707,-0.0043067,0.034331597,0.008719896,0.9993725,0.9994105,-0.00029954457,-0.034330294,0.0,-0.999962,0.00872504,0.3591302490234375,0.1149216796875,11.200075366210937,0.012742011,0.0,0.3790886,0.014640808
-0.08113782553164478,0.011591117933092112,-0.0037304747370871167,-0.079215966,0.011254707,-0.0043067,0.034331597,0.008719896,0.9993725,0.9994105,-0.00029954457,-0.034330294,0.0,-0.999962,0.00872504,0.3687070556640625,0.08858546142578125,11.21683477783203,0.01813174,0.0,0.5430554,0.01461792
-0.07873966320066021,0.011591117933092112,-0.0037304747370871167,-0.079215966,0.011254707,-0.0043067,0.034331597,0.008719896,0.9993725,0.9994105,-0.00029954457,-0.034330294,0.0,-0.999962,0.00872504,0.3806780639648437,0.09337386474609374,11.259930407714844,0.023696462,0.0,0.70765215,0.01461792
-0.08073813180981403,0.01185758041431262,-0.004130168458917879,-0.079215966,0.011254707,-0.0043067,0.034331597,0.008719896,0.9993725,0.9994105,-0.00029954457,-0.034330294,0.0,-0.999962,0.00872504,0.373495458984375,0.062249243164062495,11.209652172851563,0.029164737,0.0,0.8717705,0.014640808
-0.07860643196004995,0.009992343045769061,-0.0063950995492922,-0.079215966,0.011254707,-0.0043067,0.034331597,0.008719896,0.9993725,0.9994105,-0.00029954457,-0.034330294,0.0,-0.999962,0.00872504,0.4213794921875,0.08140285644531249,11.173739147949219,0.035700567,0.0,1.0450815,0.015510559
-0.08153751925347555,0.012257274136143382,-0.0063950995492922,-0.079215966,0.011254707,-0.0043067,0.034331597,0.008719896,0.9993725,0.9994105,-0.00029954457,-0.034330294,0.0,-0.999962,0.00872504,0.35673604736328124,0.1149216796875,11.245565197753905,0.041228298,0.0,1.219335,0.0154953
-0.08033843808798326,0.009725880564548555,-0.006928024511733216,-0.079215966,0.011254707,-0.0043067,0.034331597,0.008719896,0.9993725,0.9994105,-0.00029954457,-0.034330294,0.0,-0.999962,0.00872504,0.41898529052734373,0.05746083984375,11.192892761230468,0.047736585,0.0,1.3931992,0.015533447
-0.08007197560676275,0.0075941807147844875,-0.00479632466196915,-0.079215966,0.011254707,-0.0043067,0.034331597,0.008719896,0.9993725,0.9994105,-0.00029954457,-0.034330294,0.0,-0.999962,0.00872504,0.354341845703125,0.12689268798828124,11.25514200439453,0.053224515,0.0,1.5675151,0.015487671
-0.0814042880128653,0.00985911180515881,-0.0026646248122050836,-0.079215966,0.011254707,-0.0043067,0.034331597,0.008719896,0.9993725,0.9994105,-0.00029954457,-0.034330294,0.0,-0.999962,0.00872504,0.3280056274414062,0.086191259765625,11.269507214355468,0.05831457,0.0,1.7423974,0.0155181885
-0.07660796335089615,0.01052526800821008,-0.003464012255866608,-0.079215966,0.011254707,-0.0043067,0.034331597,0.008719896,0.9993725,0.9994105,-0.00029954457,-0.034330294,0.0,-0.999962,0.00872504,0.4165910888671875,0.16759411621093748,11.197681164550781,0.06470621,0.0,1.9142002,0.015342712
-0.0816707504940858,0.008260336917835759,-0.0026646248122050836,-0.079215966,0.011254707,-0.0043067,0.034331597,0.008719896,0.9993725,0.9994105,-0.00029954457,-0.034330294,0.0,-0.999962,0.00872504,0.34715924072265625,0.028730419921875,11.3006318359375,0.07001668,0.0,2.0870652,0.015296936
-0.08047166932859352,0.01532159267017923,-0.005329249624410167,-0.079215966,0.011254707,-0.0043067,0.034331597,0.008719896,0.9993725,0.9994105,-0.00029954457,-0.034330294,0.0,-0.999962,0.00872504,0.41898529052734373,0.143652099609375,11.259930407714844,0.07643546,0.0,2.2595654,0.015319824
-0.08127105677225505,0.009326186842717792,-0.004663093421358896,-0.079215966,0.011254707,-0.0043067,0.034331597,0.008719896,0.9993725,0.9994105,-0.00029954457,-0.034330294,0.0,-0.999962,0.00872504,0.4285620971679687,0.0718260498046875,11.207257971191405,0.08300096,0.0,2.4312587,0.015319824
-0.07620826962906538,0.011591117933092112,-0.004929555902579405,-0.079215966,0.011254707,-0.0043067,0.034331597,0.008719896,0.9993725,0.9994105,-0.00029954457,-0.034330294,0.0,-0.999962,0.00872504,0.32082302246093747,0.0383072265625,11.238382592773437,0.08805543,0.0,2.608316,0.0157547
-0.07887289444127048,0.01052526800821008,-0.0018652373685435584,-0.079215966,0.011254707,-0.0043067,0.034331597,0.008719896,0.9993725,0.9994105,-0.00029954457,-0.034330294,0.0,-0.999962,0.00872504,0.33758243408203126,0.062249243164062495,11.233594189453123,0.09321426,0.0,2.779984,0.015281677
-0.07927258816310122,0.011990811654922875,-0.003863705977697371,-0.079215966,0.011254707,-0.0043067,0.034331597,0.008719896,0.9993725,0.9994105,-0.00029954457,-0.034330294,0.0,-0.999962,0.00872504,0.37828386230468747,0.04548983154296875,11.197681164550781,0.0989893,0.0,2.9509325,0.015266418
-0.07754058203516792,0.0095926493239383,-0.005595712105630674,-0.079215966,0.011254707,-0.0043067,0.034331597,0.008719896,0.9993725,0.9994105,-0.00029954457,-0.034330294,0.0,-0.999962,0.00872504,0.4333505004882812,0.0909796630859375,11.21683477783203,0.10561162,0.0,3.1223445,0.015281677
-0.07967228188493199,0.010392036767599824,-0.0010658499248820332,-0.079215966,0.011254707,-0.0043067,0.034331597,0.008719896,0.9993725,0.9994105,-0.00029954457,-0.034330294,0.0,-0.999962,0.00872504,0.4165910888671875,0.11013327636718749,11.192892761230468,0.11197783,0.0,3.2933908,0.015281677
-0.07980551312554225,0.009459418083328047,-0.002797856052815337,-0.079215966,0.011254707,-0.0043067,0.034331597,0.008719896,0.9993725,0.9994105,-0.00029954457,-0.034330294,0.0,-0.999962,0.00872504,0.43574470214843747,0.076614453125,11.247959399414063,0.11864339,0.0,3.46545,0.015296936
-0.07887289444127048,0.01185758041431262,-0.0037304747370871167,-0.079215966,0.011254707,-0.0043067,0.034331597,0.008719896,0.9993725,0.9994105,-0.00029954457,-0.034330294,0.0,-0.999962,0.00872504,0.35673604736328124,0.02633621826171875,11.202469567871093,0.124086745,0.0,3.6363862,0.015258789
-0.07780704451638844,0.011191424211261349,-0.005462480865020421,-0.079215966,0.011254707,-0.0043067,0.034331597,0.008719896,0.9993725,0.9994105,-0.00029954457,-0.034330294,0.0,-0.999962,0.00872504,0.3950432739257812,0.076614453125,11.235988391113281,0.13012367,0.0,3.808091,0.015281677
-0.08033843808798326,0.014255742745297196,-0.002531393571594829,-0.079215966,0.011254707,-0.0043067,0.034331597,0.008719896,0.9993725,0.9994105,-0.00029954457,-0.034330294,0.0,-0.999962,0.00872504,0.35673604736328124,0.062249243164062495,11.197681164550781,0.13557248,0.0,3.9791248,0.015274048
-0.07927258816310122,0.009992343045769061,-0.004263399699528133,-0.079215966,0.011254707,-0.0043067,0.034331597,0.008719896,0.9993725,0.9994105,-0.00029954457,-0.034330294,0.0,-0.999962,0.00872504,0.39983167724609375,0.14604630126953125,11.197681164550781,0.14167647,0.0,4.150073,0.015266418
-0.07833996947882944,0.013056661579804908,-0.004130168458917879,-0.079215966,0.011254707,-0.0043067,0.034331597,0.008719896,0.9993725,0.9994105,-0.00029954457,-0.034330294,0.0,-0.999962,0.00872504,0.34237083740234375,0.1149216796875,11.183315954589844,0.14690585,0.0,4.3208876,0.015274048
-0.08353598786262936,0.015188361429568975,-0.002264931090374321,-0.079215966,0.011254707,-0.0043067,0.034331597,0.008719896,0.9993725,0.9994105,-0.00029954457,-0.034330294,0.0,-0.999962,0.00872504,0.373495458984375,0.12210428466796874,11.291055029296874,0.15260494,0.0,4.4931755,0.015258789
-0.07754058203516792,0.01212404289553313,-0.004396630940138387,-0.079215966,0.011254707,-0.0043067,0.034331597,0.008719896,0.9993725,0.9994105,-0.00029954457,-0.034330294,0.0,-0.999962,0.00872504,0.35194764404296874,0.10295067138671875,11.257536206054686,0.15798597,0.0,4.6652956,0.015289307
-0.07794027575699868,0.011990811654922875,-0.0010658499248820332,-0.079215966,0.011254707,-0.0043067,0.034331597,0.008719896,0.9993725,0.9994105,-0.00029954457,-0.034330294,0.0,-0.999962,0.00872504,0.4261678955078125,0.11252747802734374,11.245565197753905,0.16449527,0.0,4.837061,0.015274048
-0.0814042880128653,0.005196018383799912,-0.004263399699528133,-0.079215966,0.011254707,-0.0043067,0.034331597,0.008719896,0.9993725,0.9994105,-0.00029954457,-0.034330294,0.0,-0.999962,0.00872504,0.3447650390625,0.028730419921875,11.303026037597656,0.1697586,0.0,5.009618,0.015266418
-0.08207044421591657,0.011724349173702367,-0.002264931090374321,-0.079215966,0.011254707,-0.0043067,0.034331597,0.008719896,0.9993725,0.9994105,-0.00029954457,-0.034330294,0.0,-0.999962,0.00872504,0.37828386230468747,0.07422025146484375,11.142614526367186,0.17555961,0.0,5.1804905,0.015335083
-0.07794027575699868,0.009192955602107537,-0.004663093421358896,-0.079215966,0.011254707,-0.0043067,0.034331597,0.008719896,0.9993725,0.9994105,-0.00029954457,-0.034330294,0.0,-0.999962,0.00872504,0.354341845703125,0.062249243164062495,11.2240173828125,0.18192615,0.0,5.382155,0.017967224
-0.07594180714784488,0.014255742745297196,-0.0019984686091538122,-0.079215966,0.011254707,-0.0043067,0.034331597,0.008719896,0.9993725,0.9994105,-0.00029954457,-0.034330294,0.0,-0.999962,0.00872504,0.3136404174804687,0.07900865478515624,11.288660827636718,0.18673585,0.0,5.5552673,0.015335083
-0.07820673823821919,0.013989280264076687,-0.00013323124061025415,-0.079215966,0.011254707,-0.0043067,0.034331597,0.008719896,0.9993725,0.9994105,-0.00029954457,-0.034330294,0.0,-0.999962,0.00872504,0.40940848388671874,0.1149216796875,11.180921752929686,0.19299543,0.0,5.726216,0.015289307
-0.08087136305042428,0.010658499248820334,-0.0039969372183076245,-0.079215966,0.011254707,-0.0043067,0.034331597,0.008719896,0.9993725,0.9994105,-0.00029954457,-0.034330294,0.0,-0.999962,0.00872504,0.3950432739257812,0.08858546142578125,11.245565197753905,0.19903235,0.0,5.898067,0.015281677
-0.0816707504940858,0.011058192970651094,-0.0014655436467127959,-0.079215966,0.011254707,-0.0043067,0.034331597,0.008719896,0.9993725,0.9994105,-0.00029954457,-0.034330294,0.0,-0.999962,0.00872504,0.3112462158203125,0.0526724365234375,11.235988391113281,0.20379584,0.0,6.070029,0.015304565
-0.08007197560676275,0.010258805526989571,-0.0005329249624410166,-0.079215966,0.011254707,-0.0043067,0.034331597,0.008719896,0.9993725,0.9994105,-0.00029954457,-0.034330294,0.0,-0.999962,0.00872504,0.37828386230468747,0.0143652099609375,11.212046374511718,0.209568,0.0,6.241111,0.015258789
-0.08047166932859352,0.008260336917835759,-0.002398162330984575,-0.079215966,0.011254707,-0.0043067,0.034331597,0.008719896,0.9993725,0.9994105,-0.00029954457,-0.034330294,0.0,-0.999962,0.00872504,0.39264907226562495,0.10295067138671875,11.200075366210937,0.21557133,0.0,6.412352,0.015289307
-0.08113782553164478,0.010125574286379316,-0.0019984686091538122,-0.079215966,0.011254707,-0.0043067,0.034331597,0.008719896,0.9993725,0.9994105,-0.00029954457,-0.034330294,0.0,-0.999962,0.00872504,0.3687070556640625,0.06943184814453125,11.307814440917968,0.2212086,0.0,6.585241,0.015289307
-0.0770076570727269,0.012923430339194655,-0.004263399699528133,-0.079215966,0.011254707,-0.0043067,0.034331597,0.008719896,0.9993725,0.9994105,-0.00029954457,-0.034330294,0.0,-0.999962,0.00872504,0.3806780639648437,0.1005564697265625,11.264718811035156,0.2270231,0.0,6.7572985,0.015274048
-0.080205206847373,0.008926493120887028,-0.004263399699528133,-0.079215966,0.011254707,-0.0043067,0.034331597,0.008719896,0.9993725,0.9994105,-0.00029954457,-0.034330294,0.0,-0.999962,0.00872504,0.373495458984375,0.023942016601562498,11.197681164550781,0.23273928,0.0,6.928674,0.015304565
-0.08100459429103453,0.012923430339194655,-0.00479632466196915,-0.079215966,0.011254707,-0.0043067,0.034331597,0.008719896,0.9993725,0.9994105,-0.00029954457,-0.034330294,0.0,-0.999962,0.00872504,0.36631285400390623,0.13168109130859373,11.192892761230468,0.23833436,0.0,7.099635,0.015274048
-0.08193721297530632,0.009326186842717792,-0.001732006127933304,-0.079215966,0.011254707,-0.0043067,0.034331597,0.008719896,0.9993725,0.9994105,-0.00029954457,-0.034330294,0.0,-0.999962,0.00872504,0.430956298828125,0.08140285644531249,11.168950744628905,0.24492995,0.0,7.270571,0.015304565
-0.0814042880128653,0.011058192970651094,-0.004130168458917879,-0.079215966,0.011254707,-0.0043067,0.034331597,0.008719896,0.9993725,0.9994105,-0.00029954457,-0.034330294,0.0,-0.999962,0.00872504,0.38307226562499996,0.11013327636718749,11.183315954589844,0.2507898,0.0,7.441642,0.015296936
-0.07927258816310122,0.010658499248820334,-0.002264931090374321,-0.079215966,0.011254707,-0.0043067,0.034331597,0.008719896,0.9993725,0.9994105,-0.00029954457,-0.034330294,0.0,-0.999962,0.00872504,0.354341845703125,0.05746083984375,11.279084020996093,0.25621825,0.0,7.614435,0.015319824
-0.07980551312554225,0.011191424211261349,-0.002797856052815337,-0.079215966,0.011254707,-0.0043067,0.034331597,0.008719896,0.9993725,0.9994105,-0.00029954457,-0.034330294,0.0,-0.999962,0.00872504,0.354341845703125,0.11013327636718749,11.267113012695312,0.261644,0.0,7.7869596,0.015312195
-0.08153751925347555,0.011058192970651094,-0.007194486992953725,-0.079215966,0.011254707,-0.0043067,0.034331597,0.008719896,0.9993725,0.9994105,-0.00029954457,-0.034330294,0.0,-0.999962,0.00872504,0.32082302246093747,0.05746083984375,11.298237634277344,0.26655406,0.0,7.959874,0.015304565
-0.07927258816310122,0.012390505376753637,0.0005329249624410166,-0.079215966,0.011254707,-0.0043067,0.034331597,0.008719896,0.9993725,0.9994105,-0.00029954457,-0.034330294,0.0,-0.999962,0.00872504,0.3902548706054687,0.1292868896484375,11.202469567871093,0.27253568,0.0,8.131579,0.015327454
-0.08033843808798326,0.009326186842717792,-0.0026646248122050836,-0.079215966,0.011254707,-0.0043067,0.034331597,0.008719896,0.9993725,0.9994105,-0.00029954457,-0.034330294,0.0,-0.999962,0.00872504,0.3591302490234375,0.0718260498046875,11.2240173828125,0.27804297,0.0,8.3037,0.015335083
-0.08033843808798326,0.014122511504686942,-0.003863705977697371,-0.079215966,0.011254707,-0.0043067,0.034331597,0.008719896,0.9993725,0.9994105,-0.00029954457,-0.034330294,0.0,-0.999962,0.00872504,0.40462008056640625,0.10295067138671875,11.212046374511718,0.28424785,0.0,8.475638,0.015335083
-0.07740735079455767,0.009725880564548555,-0.007727411955394742,-0.079215966,0.011254707,-0.0043067,0.034331597,0.008719896,0.9993725,0.9994105,-0.00029954457,-0.034330294,0.0,-0.999962,0.00872504,0.3854664672851562,0.0909796630859375,11.164162341308593,0.2901502,0.0,8.646586,0.015312195
-0.07754058203516792,0.009326186842717792,-0.00159877488732305,-0.079215966,0.011254707,-0.0043067,0.034331597,0.008719896,0.9993725,0.9994105,-0.00029954457,-0.034330294,0.0,-0.999962,0.00872504,0.4165910888671875,0.06943184814453125,11.276689819335937,0.29654184,0.0,8.819601,0.015342712
-0.0770076570727269,0.013189892820415163,-0.006128637068071691,-0.079215966,0.011254707,-0.0043067,0.034331597,0.008719896,0.9993725,0.9994105,-0.00029954457,-0.034330294,0.0,-0.999962,0.00872504,0.3711012573242187,0.12449848632812499,11.128249316406249,0.30222705,0.0,8.990084,0.015319824
-0.08007197560676275,0.011058192970651094,-0.0009326186842717792,-0.079215966,0.011254707,-0.0043067,0.034331597,0.008719896,0.9993725,0.9994105,-0.00029954457,-0.034330294,0.0,-0.999962,0.00872504,0.32082302246093747,0.1149216796875,11.298237634277344,0.30714446,0.0,9.163257,0.015327454
-0.07754058203516792,0.01052526800821008,-0.0035972434964768626,-0.079215966,0.011254707,-0.0043067,0.034331597,0.008719896,0.9993725,0.9994105,-0.00029954457,-0.034330294,0.0,-0.999962,0.00872504,0.36152445068359373,0.07900865478515624,11.135431921386719,0.31267193,0.0,9.333509,0.015289307
-0.07820673823821919,0.006928024511733216,-0.004130168458917879,-0.079215966,0.011254707,-0.0043067,0.034331597,0.008719896,0.9993725,0.9994105,-0.00029954457,-0.034330294,0.0,-0.999962,0.00872504,0.39264907226562495,0.0909796630859375,11.212046374511718,0.31867227,0.0,9.5048485,0.015281677
-0.08193721297530632,0.009725880564548555,-0.0021316998497640663,-0.079215966,0.011254707,-0.0043067,0.034331597,0.008719896,0.9993725,0.9994105,-0.00029954457,-0.034330294,0.0,-0.999962,0.00872504,0.3902548706054687,0.076614453125,11.267113012695312,0.324639,0.0,9.6771145,0.015289307
-0.07873966320066021,0.008260336917835759,-0.003863705977697371,-0.079215966,0.011254707,-0.0043067,0.034331597,0.008719896,0.9993725,0.9994105,-0.00029954457,-0.034330294,0.0,-0.999962,0.00872504,0.373495458984375,0.06943184814453125,11.264718811035156,0.33035517,0.0,9.849516,0.015304565
-0.07807350699760894,0.013056661579804908,-0.004396630940138387,-0.079215966,0.011254707,-0.0043067,0.034331597,0.008719896,0.9993725,0.9994105,-0.00029954457,-0.034330294,0.0,-0.999962,0.00872504,0.39983167724609375,0.0909796630859375,11.202469567871093,0.33648357,0.0,10.021221,0.015327454
-0.07754058203516792,0.014522205226517705,-0.00159877488732305,-0.079215966,0.011254707,-0.0043067,0.034331597,0.008719896,0.9993725,0.9994105,-0.00029954457,-0.034330294,0.0,-0.999962,0.00872504,0.4477157104492187,0.06703764648437499,11.269507214355468,0.3433391,0.0,10.193782,0.015312195
-0.0816707504940858,0.011990811654922875,-0.002531393571594829,-0.079215966,0.011254707,-0.0043067,0.034331597,0.008719896,0.9993725,0.9994105,-0.00029954457,-0.034330294,0.0,-0.999962,0.00872504,0.3136404174804687,0.12449848632812499,11.262324609375,0.3481416,0.0,10.366233,0.015312195
-0.08073813180981403,0.012257274136143382,-0.0033307810152563544,-0.079215966,0.011254707,-0.0043067,0.034331597,0.008719896,0.9993725,0.9994105,-0.00029954457,-0.034330294,0.0,-0.999962,0.00872504,0.373495458984375,0.0718260498046875,11.231199987792968,0.3538692,0.0,10.538465,0.015335083
-0.07754058203516792,0.008926493120887028,-0.002264931090374321,-0.079215966,0.011254707,-0.0043067,0.034331597,0.008719896,0.9993725,0.9994105,-0.00029954457,-0.034330294,0.0,-0.999962,0.00872504,0.39983167724609375,0.05985504150390625,11.2240173828125,0.36016843,0.0,10.715296,0.0157547
-0.07967228188493199,0.011457886692481857,-0.004663093421358896,-0.079215966,0.011254707,-0.0043067,0.034331597,0.008719896,0.9993725,0.9994105,-0.00029954457,-0.034330294,0.0,-0.999962,0.00872504,0.3232172241210937,0.12210428466796874,11.195286962890624,0.3650954,0.0,10.885951,0.01524353
-0.07913935692249098,0.009459418083328047,-0.007061255752343471,-0.079215966,0.011254707,-0.0043067,0.034331597,0.008719896,0.9993725,0.9994105,-0.00029954457,-0.034330294,0.0,-0.999962,0.00872504,0.39743747558593745,0.076614453125,11.190498559570312,0.37115374,0.0,11.056534,0.01524353
-0.08326952538140886,0.008926493120887028,-0.006661562030512709,-0.079215966,0.011254707,-0.0043067,0.034331597,0.008719896,0.9993725,0.9994105,-0.00029954457,-0.034330294,0.0,-0.999962,0.00872504,0.36631285400390623,0.04548983154296875,11.25514200439453,0.37673765,0.0,11.228102,0.01524353
-0.08047166932859352,0.01438897398590745,-0.005196018383799912,-0.079215966,0.011254707,-0.0043067,0.034331597,0.008719896,0.9993725,0.9994105,-0.00029954457,-0.034330294,0.0,-0.999962,0.00872504,0.3758896606445312,0.105344873046875,11.322179650878905,0.3824704,0.0,11.400778,0.01525116
-0.08193721297530632,0.0073277182335639785,-0.004130168458917879,-0.079215966,0.011254707,-0.0043067,0.034331597,0.008719896,0.9993725,0.9994105,-0.00029954457,-0.034330294,0.0,-0.999962,0.00872504,0.4429273071289062,0.06464344482421874,11.219228979492186,0.38924584,0.0,11.572397,0.015296936
-0.07740735079455767,0.009725880564548555,-0.003863705977697371,-0.079215966,0.011254707,-0.0043067,0.034331597,0.008719896,0.9993725,0.9994105,-0.00029954457,-0.034330294,0.0,-0.999962,0.00872504,0.3806780639648437,0.09576806640624999,11.245565197753905,0.39506903,0.0,11.74442,0.015296936
-0.07687442583211665,0.011724349173702367,-0.003863705977697371,-0.079215966,0.011254707,-0.0043067,0.034331597,0.008719896,0.9993725,0.9994105,-0.00029954457,-0.034330294,0.0,-0.999962,0.00872504,0.373495458984375,0.086191259765625,11.305420239257812,0.40075672,0.0,11.916582,0.0152282715
-0.07913935692249098,0.01052526800821008,-0.004663093421358896,-0.079215966,0.011254707,-0.0043067,0.034331597,0.008719896,0.9993725,0.9994105,-0.00029954457,-0.034330294,0.0,-0.999962,0.00872504,0.4165910888671875,0.023942016601562498,11.271901416015623,0.40711656,0.0,12.088664,0.015266418
-0.07580857590723461,0.008926493120887028,-0.0033307810152563544,-0.079215966,0.011254707,-0.0043067,0.034331597,0.008719896,0.9993725,0.9994105,-0.00029954457,-0.034330294,0.0,-0.999962,0.00872504,0.3902548706054687,0.055066638183593745,11.238382592773437,0.41305947,0.0,12.259805,0.0152282715
-0.07794027575699868,0.014522205226517705,-0.006128637068071691,-0.079215966,0.011254707,-0.0043067,0.034331597,0.008719896,0.9993725,0.9994105,-0.00029954457,-0.034330294,0.0,-0.999962,0.00872504,0.3758896606445312,0.07422025146484375,11.173739147949219,0.4187865,0.0,12.430047,0.015235901
-0.08060490056920376,0.01505513018895872,-0.0030643185340358454,-0.079215966,0.011254707,-0.0043067,0.034331597,0.008719896,0.9993725,0.9994105,-0.00029954457,-0.034330294,0.0,-0.999962,0.00872504,0.39983167724609375,0.12449848632812499,11.228805786132812,0.42489964,0.0,12.6017275,0.015289307
-0.07714088831333717,0.0057289433462409285,-0.002531393571594829,-0.079215966,0.011254707,-0.0043067,0.034331597,0.008719896,0.9993725,0.9994105,-0.00029954457,-0.034330294,0.0,-0.999962,0.00872504,0.3854664672851562,0.12210428466796874,11.21683477783203,0.43079904,0.0,12.7733965,0.015304565
-0.07887289444127048,0.010924961730040842,-0.0010658499248820332,-0.079215966,0.011254707,-0.0043067,0.034331597,0.008719896,0.9993725,0.9994105,-0.00029954457,-0.034330294,0.0,-0.999962,0.00872504,0.3806780639648437,0.13407529296874998,11.219228979492186,0.43677908,0.0,12.949638,0.015708923
-0.08047166932859352,0.01185758041431262,-0.0031975497746461,-0.079215966,0.011254707,-0.0043067,0.034331597,0.008719896,0.9993725,0.9994105,-0.00029954457,-0.034330294,0.0,-0.999962,0.00872504,0.373495458984375,0.12210428466796874,11.276689819335937,0.44248673,0.0,13.121965,0.015281677
-0.07727411955394742,0.011591117933092112,-0.005462480865020421,-0.079215966,0.011254707,-0.0043067,0.034331597,0.008719896,0.9993725,0.9994105,-0.00029954457,-0.034330294,0.0,-0.999962,0.00872504,0.3687070556640625,0.03591302490234375,11.214440576171874,0.44811276,0.0,13.293084,0.015258789
-0.0814042880128653,0.01345635530163567,-0.000799387443661525,-0.079215966,0.011254707,-0.0043067,0.034331597,0.008719896,0.9993725,0.9994105,-0.00029954457,-0.034330294,0.0,-0.999962,0.00872504,0.4333505004882812,0.105344873046875,11.281478222656249,0.4549566,0.0,13.471251,0.015792847
-0.08393568158446013,0.010392036767599824,-0.0039969372183076245,-0.079215966,0.011254707,-0.0043067,0.034331597,0.008719896,0.9993725,0.9994105,-0.00029954457,-0.034330294,0.0,-0.999962,0.00872504,0.39983167724609375,0.05746083984375,11.274295617675781,0.4610728,0.0,13.643713,0.015296936
-0.08207044421591657,0.010258805526989571,-0.0037304747370871167,-0.079215966,0.011254707,-0.0043067,0.034331597,0.008719896,0.9993725,0.9994105,-0.00029954457,-0.034330294,0.0,-0.999962,0.00872504,0.3854664672851562,0.06464344482421874,11.180921752929686,0.46696043,0.0,13.814491,0.015274048
-0.0814042880128653,0.015987748873230498,-0.0030643185340358454,-0.079215966,0.011254707,-0.0043067,0.034331597,0.008719896,0.9993725,0.9994105,-0.00029954457,-0.034330294,0.0,-0.999962,0.00872504,0.3950432739257812,0.062249243164062495,11.128249316406249,0.4729823,0.0,13.984125,0.01524353
-0.0767411945915064,0.0063950995492922,-0.0030643185340358454,-0.079215966,0.011254707,-0.0043067,0.034331597,0.008719896,0.9993725,0.9994105,-0.00029954457,-0.034330294,0.0,-0.999962,0.00872504,0.3016694091796875,0.0718260498046875,11.231199987792968,0.4775992,0.0,14.1560135,0.015304565
-0.07887289444127048,0.010258805526989571,-0.00479632466196915,-0.079215966,0.011254707,-0.0043067,0.034331597,0.008719896,0.9993725,0.9994105,-0.00029954457,-0.034330294,0.0,-0.999962,0.00872504,0.3950432739257812,0.14604630126953125,11.188104357910156,0.48363915,0.0,14.327072,0.015289307
-0.07940581940371148,0.011457886692481857,-0.0033307810152563544,-0.079215966,0.011254707,-0.0043067,0.034331597,0.008719896,0.9993725,0.9994105,-0.00029954457,-0.034330294,0.0,-0.999962,0.00872504,0.3854664672851562,0.09816226806640624,11.214440576171874,0.4895121,0.0,14.497934,0.015235901
-0.0816707504940858,0.01185758041431262,-0.0057289433462409285,-0.079215966,0.011254707,-0.0043067,0.034331597,0.008719896,0.9993725,0.9994105,-0.00029954457,-0.034330294,0.0,-0.999962,0.00872504,0.430956298828125,0.0383072265625,11.171344946289063,0.49611098,0.0,14.668992,0.015312195
-0.07980551312554225,0.01345635530163567,-0.0019984686091538122,-0.079215966,0.011254707,-0.0043067,0.034331597,0.008719896,0.9993725,0.9994105,-0.00029954457,-0.034330294,0.0,-0.999962,0.00872504,0.33518823242187495,0.13407529296874998,11.202469567871093,0.50122297,0.0,14.839843,0.01525116
-0.07767381327577817,0.009192955602107537,-0.0018652373685435584,-0.079215966,0.011254707,-0.0043067,0.034331597,0.008719896,0.9993725,0.9994105,-0.00029954457,-0.034330294,0.0,-0.999962,0.00872504,0.36631285400390623,0.10773907470703124,11.262324609375,0.50681245,0.0,15.011692,0.015258789
-0.0831362941407986,0.011724349173702367,-0.0058621745868511835,-0.079215966,0.011254707,-0.0043067,0.034331597,0.008719896,0.9993725,0.9994105,-0.00029954457,-0.034330294,0.0,-0.999962,0.00872504,0.34715924072265625,0.08140285644531249,11.247959399414063,0.5121203,0.0,15.183665,0.015289307
-0.08100459429103453,0.011058192970651094,-0.0026646248122050836,-0.079215966,0.011254707,-0.0043067,0.034331597,0.008719896,0.9993725,0.9994105,-0.00029954457,-0.034330294,0.0,-0.999962,0.00872504,0.3687070556640625,0.105344873046875,11.262324609375,0.5177632,0.0,15.35603,0.015304565
-0.07487595722296284,0.013323124061025418,-0.0006661562030512709,-0.079215966,0.011254707,-0.0043067,0.034331597,0.008719896,0.9993725,0.9994105,-0.00029954457,-0.034330294,0.0,-0.999962,0.00872504,0.41419688720703124,0.13407529296874998,11.204863769531249,0.52408016,0.0,15.526917,0.01525116
-0.07873966320066021,0.014921898948348467,-0.004263399699528133,-0.079215966,0.011254707,-0.0043067,0.034331597,0.008719896,0.9993725,0.9994105,-0.00029954457,-0.034330294,0.0,-0.999962,0.00872504,0.35194764404296874,0.1388636962890625,11.358092675781249,0.52944505,0.0,15.700055,0.01524353
-0.07407656977930133,0.014255742745297196,-0.003464012255866608,-0.079215966,0.011254707,-0.0043067,0.034331597,0.008719896,0.9993725,0.9994105,-0.00029954457,-0.034330294,0.0,-0.999962,0.00872504,0.354341845703125,0.02154781494140625,11.125855114746093,0.5348789,0.0,15.870671,0.015335083
-0.0816707504940858,0.004396630940138387,-0.004929555902579405,-0.079215966,0.011254707,-0.0043067,0.034331597,0.008719896,0.9993725,0.9994105,-0.00029954457,-0.034330294,0.0,-0.999962,0.00872504,0.41419688720703124,0.06464344482421874,11.25514200439453,0.5412148,0.0,16.042841,0.015296936
-0.07993874436615249,0.0095926493239383,-0.0030643185340358454,-0.079215966,0.011254707,-0.0043067,0.034331597,0.008719896,0.9993725,0.9994105,-0.00029954457,-0.034330294,0.0,-0.999962,0.00872504,0.4261678955078125,0.076614453125,11.197681164550781,0.5479225,0.0,16.219086,0.01573944
-0.08500153150934216,0.010658499248820334,-0.0037304747370871167,-0.079215966,0.011254707,-0.0043067,0.034331597,0.008719896,0.9993725,0.9994105,-0.00029954457,-0.034330294,0.0,-0.999962,0.00872504,0.37828386230468747,0.07422025146484375,11.247959399414063,0.5536975,0.0,16.390802,0.015266418
-0.07953905064432175,0.008127105677225504,-0.0013323124061025418,-0.079215966,0.011254707,-0.0043067,0.034331597,0.008719896,0.9993725,0.9994105,-0.00029954457,-0.034330294,0.0,-0.999962,0.00872504,0.41898529052734373,0.1149216796875,11.200075366210937,0.5600907,0.0,16.561703,0.015258789
-0.07953905064432175,0.0074609494741742334,0.11284686079688527,-0.079215966,0.011254707,-0.0043067,0.034354337,0.008629874,0.9993725,0.9994063,-0.0029192562,-0.034330294,-0.0026211583,-0.9999585,0.00872504,0.46686932373046874,0.7350199096679687,11.145008728027342,0.5672039,0.01119869,16.731506,0.015235901
-0.07833996947882944,0.010658499248820334,0.28897856088364127,-0.079215966,0.011254707,-0.0043067,0.03439566,0.008463662,0.9993725,0.9993805,-0.007751593,-0.034330297,-0.0074561685,-0.99993414,0.00872504,0.45489831542968745,0.40462008056640625,11.231199987792968,0.5741659,0.017391225,16.903395,0.015304565
-0.08060490056920376,0.013989280264076687,0.35506125622632734,-0.079215966,0.011254707,-0.0043067,0.034443084,0.008268557,0.9993725,0.9993205,-0.01341638,-0.034330297,-0.0131241,-0.99987584,0.008725041,0.40940848388671874,0.19393033447265623,11.17852755126953,0.5804286,0.017391225,17.074392,0.015296936
-0.07967228188493199,0.0075941807147844875,0.3485329254364249,-0.079215966,0.011254707,-0.0043067,0.03448534,0.008090506,0.9993725,0.99923784,-0.018578881,-0.034330297,-0.018289475,-0.9997947,0.008725041,0.36152445068359373,-0.08140285644531249,11.149797131347656,0.585934,0.017391225,17.244184,0.0152282715
-0.08033843808798326,0.011058192970651094,0.29430781050805144,-0.079215966,0.011254707,-0.0043067,0.03452115,0.007936308,0.9993725,0.99914485,-0.023044368,-0.034330297,-0.022757454,-0.999703,0.008725041,0.3112462158203125,-0.011971008300781249,11.269507214355468,0.5906832,0.017391225,17.416143,0.015258789
-0.08153751925347555,0.01212404289553313,0.26992649347637493,-0.079215966,0.011254707,-0.0043067,0.03455306,0.0077962144,0.9993725,0.99904317,-0.027097017,-0.034330297,-0.026812369,-0.99960244,0.008725041,0.2920926025390625,-0.031124621582031248,11.288660827636718,0.5951558,0.017391225,17.588997,0.015312195
-0.08113782553164478,0.011191424211261349,0.2391500768954062,-0.079215966,0.011254707,-0.0043067,0.03458084,0.0076720356,0.9993725,0.9989394,-0.030685807,-0.034330297,-0.030403169,-0.9994997,0.008725041,0.35194764404296874,-0.062249243164062495,11.228805786132812,0.60053146,0.017391225,17.760506,0.015274048
-0.08007197560676275,0.011990811654922875,0.19691577362195564,-0.079215966,0.011254707,-0.0043067,0.03460265,0.0075730756,0.9993725,0.99884754,-0.033543434,-0.034330297,-0.033262398,-0.9994086,0.008725041,0.37828386230468747,-0.12689268798828124,11.257536206054686,0.60629493,0.017391225,17.932024,0.015235901
-0.08153751925347555,0.011457886692481857,0.1546814703485051,-0.079215966,0.011254707,-0.0043067,0.034620106,0.007492869,0.9993725,0.998767,-0.035858016,-0.034330294,-0.035578284,-0.99932885,0.008725041,0.40222587890625,-0.076614453125,11.207257971191405,0.61243546,0.017391225,18.103119,0.015266418
-0.07940581940371148,0.01345635530163567,0.16600612580037669,-0.079215966,0.011254707,-0.0043067,0.034640633,0.0073974,0.9993725,0.99866444,-0.038611274,-0.034330297,-0.03833309,-0.999227,0.008725041,0.373495458984375,0.2154781494140625,11.176133349609374,0.61815447,0.020690668,18.27425,0.015312195
-0.0770076570727269,0.016520673835671518,0.23941653937662674,-0.079215966,0.011254707,-0.0043067,0.034671888,0.0072494964,0.9993725,0.9984906,-0.04287294,-0.034330297,-0.042597152,-0.9990542,0.00872504,0.35194764404296874,0.4165910888671875,11.197681164550781,0.6235221,0.027044166,18.445028,0.01525116
-0.08113782553164478,0.011724349173702367,0.3707825426183373,-0.079215966,0.011254707,-0.0043067,0.034716018,0.0070351344,0.9993725,0.9982066,-0.049041398,-0.034330297,-0.0487691,-0.99877197,0.008725041,0.41419688720703124,0.36631285400390623,11.250353601074218,0.6298296,0.03262248,18.616352,0.0152282715
-0.07847320071943971,0.016120980113840753,0.45618376784951026,-0.079215966,0.011254707,-0.0043067,0.03476626,0.006782485,0.9993725,0.9978236,-0.0562993,-0.034330297,-0.05603112,-0.9983909,0.008725041,0.3112462158203125,0.15562310791015624,11.262324609375,0.63465005,0.03262248,18.79078,0.015487671
-0.08073813180981403,0.010924961730040842,0.46630934213588954,-0.079215966,0.011254707,-0.0043067,0.034813337,0.006536556,0.9993725,0.9974007,-0.06335143,-0.034330297,-0.06308727,-0.9979699,0.0087250415,0.4070142822265625,0.07900865478515624,11.247959399414063,0.6408854,0.03262248,18.963097,0.015319824
-0.08260336917835759,0.012923430339194655,0.42860490104318766,-0.079215966,0.011254707,-0.0043067,0.034853995,0.0063161785,0.9993725,0.99697995,-0.069660224,-0.034330297,-0.06939967,-0.99755085,0.0087250415,0.4477157104492187,-0.0430956298828125,11.264718811035156,0.64772725,0.03262248,19.13524,0.015281677
-0.08100459429103453,0.01372281778285618,0.36865084276857324,-0.079215966,0.011254707,-0.0043067,0.034888804,0.0061209723,0.9993725,0.9965743,-0.07524006,-0.034330294,-0.07498272,-0.9971467,0.0087250415,0.34237083740234375,-0.0526724365234375,11.303026037597656,0.6529671,0.03262248,19.308228,0.015304565
-0.08473506902812164,0.008926493120887028,0.3583920372415837,-0.079215966,0.011254707,-0.0043067,0.034922697,0.005924533,0.9993725,0.9961351,-0.08084726,-0.034330297,-0.08059314,-0.9967089,0.0087250415,0.430956298828125,0.21787235107421873,11.29344923095703,0.6595594,0.035955258,19.480982,0.015296936
-0.08326952538140886,0.014655436467127957,0.4114180710044648,-0.079215966,0.011254707,-0.0043067,0.034961846,0.005688955,0.9993725,0.99556744,-0.08756122,-0.034330297,-0.08731097,-0.9961429,0.0087250415,0.44532150878906246,0.4165910888671875,11.209652172851563,0.66636467,0.04232147,19.652285,0.015281677
-0.08380245034384987,0.011591117933092112,0.5113415014621555,-0.079215966,0.011254707,-0.0043067,0.035007637,0.0054000313,0.9993725,0.9948104,-0.09578005,-0.034330297,-0.09553456,-0.9953879,0.0087250415,0.45489831542968745,0.4429273071289062,11.207257971191405,0.6733024,0.049076624,19.823208,0.01525116
-0.0816707504940858,0.014655436467127957,0.5898147021815952,-0.079215966,0.011254707,-0.0043067,0.03505542,0.0050805924,0.9993725,0.9938956,-0.10484716,-0.034330294,-0.10460696,-0.9944754,0.0087250415,0.33518823242187495,0.15322890625,11.259930407714844,0.67841697,0.049076624,19.99502,0.015258789
-0.08180398173469605,0.01345635530163567,0.5819540589855902,-0.079215966,0.011254707,-0.0043067,0.035098676,0.004772636,0.9993725,0.9929369,-0.1135688,-0.034330297,-0.11333368,-0.9935187,0.0087250415,0.3687070556640625,-0.06703764648437499,11.219228979492186,0.6840458,0.049076624,20.166298,0.015266418
-0.07980551312554225,0.014788667707738212,0.537321593381155,-0.079215966,0.011254707,-0.0043067,0.03513637,0.0044866847,0.9993725,0.99197924,-0.121650085,-0.034330297,-0.12141971,-0.99256295,0.0087250415,0.3902548706054687,0.00718260498046875,11.257536206054686,0.6899887,0.049076624,20.33773,0.0152282715
-0.08007197560676275,0.014921898948348467,0.5146722824774118,-0.079215966,0.011254707,-0.0043067,0.035170797,0.004208334,0.9993725,0.9909849,-0.12950078,-0.034330297,-0.12927502,-0.9915704,0.0087250415,0.2920926025390625,0.04548983154296875,11.214440576171874,0.6944635,0.049076624,20.509533,0.015319824
-0.08180398173469605,0.014255742745297196,0.5305268001100321,-0.079215966,0.011254707,-0.0043067,0.035204623,0.0039153025,0.9993725,0.98987204,-0.1377487,-0.034330294,-0.13752785,-0.9904595,0.0087250415,0.28490999755859375,0.12689268798828124,11.247959399414063,0.69880867,0.049076624,20.681078,0.01525116
-0.07554211342601411,0.011724349173702367,0.5751592657144673,-0.079215966,0.011254707,-0.0043067,0.035238422,0.0035984248,0.9993725,0.9885928,-0.14664856,-0.034330297,-0.14643298,-0.9891822,0.0087250415,0.3280056274414062,0.16041151123046873,11.317391247558593,0.7038261,0.049076624,20.854198,0.015296936
-0.0863338439154447,0.011191424211261349,0.6068683009797078,-0.079215966,0.011254707,-0.0043067,0.0352709,0.003264768,0.9993725,0.9871606,-0.155998,-0.034330297,-0.15578802,-0.987752,0.0087250415,0.229843359375,-0.06703764648437499,11.288660827636718,0.7073385,0.049076624,21.026709,0.015281677
-0.0877993875621575,0.014122511504686942,0.6460382857191225,-0.079215966,0.011254707,-0.0043067,0.035301793,0.0029117884,0.9993725,0.98555076,-0.16586481,-0.034330297,-0.16566075,-0.98614424,0.0087250415,0.40940848388671874,0.19632453613281248,11.113884106445312,0.7135731,0.049076624,21.195953,0.0152282715
-0.08380245034384987,0.01532159267017923,0.6597611035019786,-0.079215966,0.011254707,-0.0043067,0.035329327,0.0025561152,0.9993725,0.98383033,-0.17578192,-0.034330297,-0.17558385,-0.98442584,0.0087250415,0.373495458984375,0.06943184814453125,11.29344923095703,0.71925795,0.049076624,21.367847,0.015220642
-0.08286983165957809,0.012390505376753637,0.6297840743646714,-0.079215966,0.011254707,-0.0043067,0.035352837,0.002207248,0.9993725,0.9820473,-0.18548495,-0.0343303,-0.18529275,-0.9826447,0.0087250415,0.38307226562499996,-0.076614453125,11.231199987792968,0.7252873,0.049076624,21.54462,0.01573944
-0.07740735079455767,0.01345635530163567,0.6349800927484713,-0.079215966,0.011254707,-0.0043067,0.035373576,0.0018452859,0.9993725,0.9800973,-0.19552673,-0.034330297,-0.1953407,-0.9806967,0.0087250415,0.40222587890625,0.25139117431640623,11.180921752929686,0.7315598,0.05299694,21.71898,0.015594482
-0.08247013793774732,0.010791730489430587,0.7197151617765929,-0.079215966,0.011254707,-0.0043067,0.03539262,0.0014343332,0.9993725,0.9777604,-0.20689638,-0.034330297,-0.20671731,-0.97836185,0.0087250415,0.24181436767578124,0.4070142822265625,11.322179650878905,0.7352551,0.0592168,21.892002,0.015281677
-0.08260336917835759,0.014122511504686942,0.8771944881779135,-0.079215966,0.011254707,-0.0043067,0.03540938,0.0009331041,0.9993725,0.9747332,-0.22071868,-0.034330297,-0.22054815,-0.9753371,0.0087250415,0.2442085693359375,0.45010991210937495,11.324573852539062,0.7389889,0.06609867,22.065147,0.015289307
-0.07953905064432175,0.01732006127933304,1.0458652387904952,-0.079215966,0.011254707,-0.0043067,0.035419956,0.00034859544,0.9993725,0.97095776,-0.2367752,-0.034330297,-0.23661467,-0.9715644,0.0087250415,0.22026655273437498,0.5913678100585937,11.195286962890624,0.7423431,0.07510418,22.235632,0.0152282715
-0.08846554376520875,0.013989280264076687,1.1564471684970061,-0.079215966,0.011254707,-0.0043067,0.035420485,-0.00029011385,0.9993725,0.9665307,-0.25424394,-0.034330297,-0.25409436,-0.96714014,0.0087250415,0.35673604736328124,0.28730419921875,11.271901416015623,0.74778646,0.07948809,22.407627,0.015258789
-0.0866003063966652,0.00985911180515881,1.2030781027105952,-0.079215966,0.011254707,-0.0043067,0.035409197,-0.0009399971,0.9993725,0.9617028,-0.27193606,-0.034330297,-0.27179766,-0.96231484,0.008725041,0.28012159423828126,0.00718260498046875,11.228805786132812,0.75207144,0.07948809,22.579393,0.015296936
-0.07980551312554225,0.015854517632620246,1.1503185314289346,-0.079215966,0.011254707,-0.0043067,0.035387684,-0.001551325,0.9993725,0.95686346,-0.2885028,-0.034330297,-0.288375,-0.9574778,0.008725041,0.29927520751953124,-0.16759411621093748,11.219228979492186,0.75665855,0.07948809,22.751356,0.015327454
-0.08540122523117291,0.014788667707738212,1.0538591132271105,-0.079215966,0.011254707,-0.0043067,0.035358354,-0.0021169467,0.9993725,0.95212823,-0.3037654,-0.034330297,-0.3036474,-0.95274454,0.008725041,0.2561795776367187,-0.20350714111328125,11.259930407714844,0.76057535,0.07637661,22.923513,0.015289307
-0.08180398173469605,0.016653905076281773,1.0300107211578748,-0.079215966,0.011254707,-0.0043067,0.035319734,-0.002685358,0.9993725,0.9471195,-0.3190396,-0.034330297,-0.31893158,-0.94773763,0.008725041,0.09576806640624999,0.1197100830078125,11.116278308105468,0.76057535,0.07637661,23.092964,0.01524353
-0.08180398173469605,0.008926493120887028,1.1274027580439707,-0.079215966,0.011254707,-0.0043067,0.03526677,-0.00330905,0.9993725,0.94133395,-0.3357257,-0.034330294,-0.33562863,-0.941954,0.008725041,0.16280571289062498,0.16280571289062498,11.097124694824219,0.76057535,0.07637661,23.262209,0.01525116
-0.08846554376520875,0.014122511504686942,1.1699035237986417,-0.079215966,0.011254707,-0.0043067,0.035201997,-0.0039387955,0.9993725,0.9351837,-0.35249525,-0.034330297,-0.35240927,-0.9358054,0.008725041,0.3232172241210937,0.06464344482421874,11.417947717285156,0.7655245,0.07637661,23.437042,0.015312195
-0.08939816244948055,0.018252679963604822,1.1022220535686327,-0.079215966,0.011254707,-0.0043067,0.035132222,-0.004519023,0.9993725,0.92924094,-0.36787596,-0.034330297,-0.36780024,-0.92986387,0.00872504,0.45010991210937495,-0.16280571289062498,11.291055029296874,0.77239263,0.07637661,23.60933,0.015258789
-0.08393568158446013,0.007727411955394742,1.0066952540510805,-0.079215966,0.011254707,-0.0043067,0.03505984,-0.0050499863,0.9993725,0.9235694,-0.38189143,-0.034330297,-0.38182515,-0.92419344,0.008725041,0.4070142822265625,-0.143652099609375,11.125855114746093,0.77859074,0.07637661,23.778757,0.0152282715
-0.09219601850229589,0.017186830038722786,0.9799157746884193,-0.079215966,0.011254707,-0.0043067,0.034979627,-0.0055785677,0.9993725,0.9177003,-0.39578733,-0.034330297,-0.39573047,-0.9183253,0.008725041,0.34715924072265625,0.076614453125,11.274295617675781,0.78388,0.07637661,23.950531,0.015235901
-0.08420214406568063,0.010258805526989571,1.0409356828879157,-0.079215966,0.011254707,-0.0043067,0.03488427,-0.006146745,0.9993725,0.91114175,-0.41066062,-0.034330297,-0.41061392,-0.9117676,0.008725041,0.38307226562499996,0.25139117431640623,11.176133349609374,0.7897135,0.08020486,24.120724,0.0152282715
-0.07780704451638844,0.01532159267017923,1.1729678423326777,-0.079215966,0.011254707,-0.0043067,0.03475751,-0.0068271672,0.9993725,0.902944,-0.42838484,-0.034330297,-0.42835036,-0.90357065,0.008725041,0.19871873779296872,0.40222587890625,11.180921752929686,0.7897135,0.08667683,24.300629,0.016090393
-0.08540122523117291,0.015188361429568975,1.2597013799699532,-0.079215966,0.011254707,-0.0043067,0.034619614,-0.0074951285,0.9993725,0.89452845,-0.44569087,-0.034330297,-0.44566846,-0.8951556,0.008725041,0.24660277099609373,0.11252747802734374,11.295843432617186,0.79347825,0.08667683,24.473076,0.015266418
-0.09379479338961894,0.011457886692481857,1.2242618699676255,-0.079215966,0.011254707,-0.0043067,0.03447506,-0.008134192,0.9993725,0.88613164,-0.46216035,-0.034330297,-0.46214956,-0.88675916,0.008725041,0.3064578125,-0.19632453613281248,11.034875451660156,0.7981591,0.08667683,24.641623,0.015274048
-0.07927258816310122,0.01372281778285618,1.1291347641719038,-0.079215966,0.011254707,-0.0043067,0.034334175,-0.00870971,0.9993725,0.87827724,-0.47691783,-0.034330297,-0.47691748,-0.8789047,0.00872504,0.13168109130859373,-0.4261678955078125,11.219228979492186,0.7981591,0.080157764,24.813242,0.015296936
-0.09046401237436258,0.01185758041431262,1.0093598788632856,-0.079215966,0.011254707,-0.0043067,0.0341967,-0.009385857,0.99937105,0.87092996,-0.49020135,-0.034405544,-0.49021593,-0.8715588,0.008588846,0.26336218261718747,-0.21787235107421873,11.384428894042967,0.80218375,0.07682831,24.987215,0.015281677
-0.0814042880128653,0.01052526800821008,0.9831133244630654,-0.079215966,0.011254707,-0.0043067,0.034049135,-0.009907834,0.99937105,0.8633299,-0.50346583,-0.034405544,-0.50349003,-0.8639584,0.008588846,0.27293898925781246,0.181959326171875,11.2240173828125,0.8063589,0.07682831,25.158909,0.015296936
-0.071811638688927,0.013056661579804908,1.0777075052963458,-0.079215966,0.011254707,-0.0043067,0.033876333,-0.010483453,0.99937105,0.8546735,-0.5180246,-0.034405544,-0.5180595,-0.85530156,0.008588846,0.18435352783203124,0.41898529052734373,11.322179650878905,0.8063589,0.08322152,25.33167,0.015258789
-0.08073813180981403,0.010791730489430587,1.1733675360545084,-0.079215966,0.011254707,-0.0043067,0.03368093,-0.011095214,0.99937105,0.84515226,-0.5334173,-0.034405544,-0.5334635,-0.8457795,0.008588845,0.32082302246093747,0.2705447875976562,11.200075366210937,0.8112469,0.087343514,25.502314,0.015235901
-0.08913169996826004,0.01692036755750228,1.163241961768129,-0.079215966,0.011254707,-0.0043067,0.0334811,-0.011684391,0.99937105,0.83566415,-0.5481622,-0.034405544,-0.5482194,-0.8362905,0.008588845,0.2657563842773437,-0.086191259765625,11.434707128906249,0.81530404,0.087343514,25.67688,0.015266418
-0.08859877500581902,0.007061255752343471,1.0995574287564276,-0.079215966,0.011254707,-0.0043067,0.033283804,-0.012235092,0.99937105,0.82650816,-0.5618724,-0.034405544,-0.5619399,-0.8271335,0.008588845,0.3112462158203125,-0.15322890625,11.008539233398437,0.8200462,0.087343514,25.844604,0.015235901
-0.08726646259971647,0.013323124061025418,1.0565237380393155,-0.079215966,0.011254707,-0.0043067,0.033081446,-0.012772121,0.99937105,0.8173072,-0.5751742,-0.034405544,-0.57525176,-0.8179313,0.008588845,0.26336218261718747,0.011971008300781249,11.238382592773437,0.82406276,0.087343514,26.016003,0.01525116
-0.08953139369009079,0.014655436467127957,1.0867672296578432,-0.079215966,0.011254707,-0.0043067,0.03285784,-0.0133368485,0.99937105,0.80733603,-0.58908826,-0.034405544,-0.5891765,-0.8079587,0.008588845,0.3232172241210937,0.1484405029296875,11.295843432617186,0.8290021,0.087343514,26.188622,0.015281677
-0.07887289444127048,0.019318529888486854,1.2057427275228,-0.079215966,0.011254707,-0.0043067,0.03259618,-0.013964182,0.99937105,0.7958966,-0.60445416,-0.03440554,-0.60455436,-0.7965176,0.008588845,0.22744915771484372,0.4285620971679687,11.444283935546874,0.8324796,0.093895935,26.363596,0.015289307
-0.08247013793774732,0.012523736617363892,1.373880553172941,-0.079215966,0.011254707,-0.0043067,0.03228231,-0.014675206,0.99937105,0.78245825,-0.62175184,-0.03440554,-0.62186563,-0.7830769,0.008588845,0.2657563842773437,0.38307226562499996,11.183315954589844,0.8365935,0.09982591,26.536715,0.0154800415
-0.09246248098351639,0.010924961730040842,1.4651439529909651,-0.079215966,0.011254707,-0.0043067,0.031945087,-0.015395479,0.99937105,0.76831806,-0.63914293,-0.03440554,-0.63927054,-0.768934,0.008588845,0.277727392578125,0.03591302490234375,11.195286962890624,0.84082705,0.09982591,26.70737,0.01524353
-0.08620061267483445,0.012523736617363892,1.4275727431388734,-0.079215966,0.011254707,-0.0043067,0.03160613,-0.01607986,0.99937105,0.7543757,-0.65554076,-0.03440554,-0.65568155,-0.7549887,0.008588844,0.14125789794921875,-0.15322890625,11.281478222656249,0.84082705,0.09982591,26.87977,0.015281677
-0.09166309353985486,0.009992343045769061,1.3396401243361056,-0.079215966,0.011254707,-0.0043067,0.03126441,-0.016734576,0.99937105,0.74056035,-0.6711086,-0.03440554,-0.67126215,-0.7411703,0.008588844,0.17956512451171874,-0.3399766357421875,11.259930407714844,0.84082705,0.09443596,27.058285,0.015853882
-0.09699234316426504,0.017586523760553547,1.2342542130133947,-0.079215966,0.011254707,-0.0043067,0.030946538,-0.017315343,0.99937105,0.7279022,-0.6848174,-0.03440554,-0.6849823,-0.7285091,0.008588844,0.21308394775390624,-0.46208092041015625,11.336544860839844,0.8440898,0.08736049,27.231873,0.015312195
-0.08833231252459851,0.020251148572758632,1.1612434931589755,-0.079215966,0.011254707,-0.0043067,0.030633261,-0.017863723,0.99937105,0.71559083,-0.69767195,-0.03440554,-0.69784766,-0.71619475,0.008588844,0.20829554443359374,-0.12449848632812499,11.305420239257812,0.8472761,0.08736049,27.40481,0.015296936
-0.08353598786262936,0.013589586542245924,1.2025451777481542,-0.079215966,0.011254707,-0.0043067,0.030288178,-0.018642323,0.99936736,0.7022743,-0.71106774,-0.034548424,-0.71126187,-0.70287645,0.008444914,0.23223756103515625,0.37828386230468747,11.214440576171874,0.85083216,0.09315284,27.576529,0.015312195
-0.09459418083328046,0.010658499248820334,1.325117919109588,-0.079215966,0.011254707,-0.0043067,0.02989518,-0.019266244,0.99936736,0.6873817,-0.7254743,-0.034548424,-0.7256809,-0.6879797,0.008444914,0.2705447875976562,0.36631285400390623,11.135431921386719,0.8549748,0.098761894,27.747036,0.015312195
-0.07754058203516792,0.015188361429568975,1.3678851473454796,-0.079215966,0.011254707,-0.0043067,0.029488768,-0.019882722,0.99936736,0.6721725,-0.7395881,-0.03454842,-0.7398071,-0.67276615,0.008444914,0.13407529296874998,-0.1149216796875,11.312602844238281,0.8549748,0.098761894,27.92017,0.015304565
-0.08540122523117291,0.017453292519943295,1.2967396648596037,-0.079215966,0.011254707,-0.0043067,0.029094372,-0.020455504,0.99936736,0.6575831,-0.75258946,-0.03454842,-0.75281996,-0.6581723,0.008444913,0.181959326171875,-0.24899697265624998,11.262324609375,0.8549748,0.0949682,28.09176,0.015235901
-0.08406891282507037,0.016520673835671518,1.1892220536871287,-0.079215966,0.011254707,-0.0043067,0.02872784,-0.02096715,0.99936736,0.6441625,-0.7641081,-0.03454842,-0.764349,-0.6447475,0.008444913,0.239420166015625,-0.2753331909179687,11.233594189453123,0.8586189,0.09077745,28.262743,0.015220642
-0.08500153150934216,0.015588055151399738,1.0623859126261668,-0.079215966,0.011254707,-0.0043067,0.028390445,-0.021421786,0.99936736,0.6319177,-0.77426517,-0.03454842,-0.7745153,-0.63249886,0.008444913,0.181959326171875,-0.22505495605468748,11.233594189453123,0.8586189,0.08733823,28.434412,0.015281677
-0.08993108741192156,0.01732006127933304,0.992839205027614,-0.079215966,0.011254707,-0.0043067,0.028063498,-0.021848349,0.99936736,0.6201456,-0.78372556,-0.034548417,-0.78398454,-0.62072295,0.008444913,0.2537853759765625,-0.19871873779296872,11.204863769531249,0.86249334,0.08733823,28.60547,0.015266418
-0.09019754989314206,0.015987748873230498,0.9952373673585986,-0.079215966,0.011254707,-0.0043067,0.027722742,-0.022279136,0.99936736,0.6079684,-0.7932092,-0.034548417,-0.79347706,-0.60854167,0.008444913,0.22266075439453123,-0.01915361328125,11.286266625976562,0.86589766,0.08733823,28.77803,0.015289307
-0.0767411945915064,0.011724349173702367,1.0420015328127978,-0.079215966,0.011254707,-0.0043067,0.027357372,-0.022726297,0.99936736,0.59501004,-0.8029755,-0.03454842,-0.8032526,-0.59557885,0.008444913,0.1388636962890625,0.04548983154296875,11.135431921386719,0.86589766,0.08733823,28.948284,0.015289307
-0.07860643196004995,0.013989280264076687,1.0838361423644176,-0.079215966,0.011254707,-0.0043067,0.026980873,-0.023172028,0.99936736,0.58175737,-0.81262827,-0.034548417,-0.8129148,-0.5823216,0.008444913,0.07900865478515624,-0.13168109130859373,11.252747802734374,0.86589766,0.08733823,29.120245,0.015281677
-0.0831362941407986,0.014522205226517705,1.0160214408937982,-0.079215966,0.011254707,-0.0043067,0.026628818,-0.02357576,0.99936736,0.5694524,-0.82129806,-0.03454842,-0.82159287,-0.57001215,0.008444912,0.28490999755859375,-0.26336218261718747,11.269507214355468,0.87023634,0.08332768,29.29186,0.0152282715
-0.08713323135910622,0.01212404289553313,0.9198284851731947,-0.079215966,0.011254707,-0.0043067,0.026299201,-0.0239429,0.99936736,0.5580041,-0.82911867,-0.034548417,-0.82942134,-0.5585597,0.008444912,0.277727392578125,-0.16759411621093748,11.221623181152344,0.87453556,0.08332768,29.465572,0.0154800415
-0.08553445647178318,0.01372281778285618,0.8458851466345038,-0.079215966,0.011254707,-0.0043067,0.02598718,-0.024281206,0.99936736,0.5472287,-0.83626986,-0.03454842,-0.8365796,-0.54778033,0.008444912,0.16998831787109375,-0.16280571289062498,11.267113012695312,0.87453556,0.08332768,29.639042,0.015396118
-0.09113016857741385,0.01505513018895872,0.839223584603991,-0.079215966,0.011254707,-0.0043067,0.025665214,-0.02478664,0.99936324,0.5362075,-0.8433732,-0.03468835,-0.84369594,-0.5367564,0.008354561,0.23702596435546874,0.12210428466796874,11.159373937988281,0.8781758,0.08332768,29.810427,0.015357971
-0.07913935692249098,0.010658499248820334,0.8831898940053748,-0.079215966,0.011254707,-0.0043067,0.025322106,-0.02513706,0.99936324,0.524565,-0.85066354,-0.03468835,-0.8509938,-0.52510935,0.008354561,0.22744915771484372,0.13646949462890623,11.204863769531249,0.88166374,0.08332768,29.982254,0.015335083
-0.08247013793774732,0.016520673835671518,0.9083705984807129,-0.079215966,0.011254707,-0.0043067,0.024968313,-0.025649494,0.99935913,0.51266277,-0.8578834,-0.034826912,-0.85822695,-0.5132038,0.008270353,0.1580173095703125,-0.0143652099609375,11.2240173828125,0.88166374,0.08332768,30.15429,0.015327454
-0.08060490056920376,0.01532159267017923,0.890650843479549,-0.079215966,0.011254707,-0.0043067,0.024615528,-0.026149211,0.99935496,0.50093025,-0.8647811,-0.034966554,-0.8651376,-0.5014678,0.008188103,0.201112939453125,0.11252747802734374,11.235988391113281,0.88474476,0.08332768,30.326422,0.015319824
-0.09019754989314206,0.016120980113840753,0.8815911191180518,-0.079215966,0.011254707,-0.0043067,0.024258336,-0.026480911,0.99935496,0.48914638,-0.87150055,-0.034966554,-0.8718643,-0.48967907,0.008188103,0.2059013427734375,-0.028730419921875,11.274295617675781,0.88790226,0.08332768,30.499313,0.015335083
-0.08700000011849597,0.011324655451871604,0.8845222064114774,-0.079215966,0.011254707,-0.0043067,0.023892073,-0.026811833,0.99935496,0.47712168,-0.8781414,-0.034966554,-0.87851244,-0.47764933,0.008188103,0.21787235107421873,0.028730419921875,11.159373937988281,0.89124334,0.08332768,30.670443,0.015335083
-0.07687442583211665,0.018385911204215073,0.9148989292706153,-0.079215966,0.011254707,-0.0043067,0.023507541,-0.027149605,0.99935496,0.4645585,-0.8848519,-0.034966554,-0.88523036,-0.46508083,0.008188103,0.17238251953125,0.09337386474609374,11.250353601074218,0.89124334,0.08332768,30.842968,0.015335083
-0.08846554376520875,0.016387442595061263,0.9379479338961892,-0.079215966,0.011254707,-0.0043067,0.02311245,-0.027486727,0.99935496,0.45171338,-0.8914777,-0.034966554,-0.8918637,-0.45223016,0.008188103,0.16759411621093748,0.028730419921875,11.192892761230468,0.89124334,0.08332768,31.014612,0.015335083
-0.07980551312554225,0.0057289433462409285,0.9202281788950255,-0.079215966,0.011254707,-0.0043067,0.022724371,-0.027969586,0.9993505,0.43919283,-0.8977065,-0.03511166,-0.8981054,-0.43970543,0.008115767,0.2059013427734375,-0.02633621826171875,11.259930407714844,0.8943993,0.08332768,31.187199,0.015327454
-0.08553445647178318,0.014655436467127957,0.9030413488563027,-0.079215966,0.011254707,-0.0043067,0.022331806,-0.028284011,0.9993505,0.4266213,-0.9037485,-0.035111655,-0.9041546,-0.42712834,0.008115767,0.19871873779296872,0.04548983154296875,11.10191309814453,0.8943993,0.08332768,31.357363,0.015327454
-0.0738101072980808,0.012390505376753637,0.9186294040077024,-0.079215966,0.011254707,-0.0043067,0.021929199,-0.028597292,0.9993505,0.41378573,-0.90969706,-0.03511166,-0.9101102,-0.41428694,0.008115767,0.15322890625,-0.0047884033203125,11.133037719726563,0.8943993,0.08332768,31.52809,0.015335083
-0.07287748861380902,0.008926493120887028,0.9018422676908104,-0.079215966,0.011254707,-0.0043067,0.021531055,-0.028898245,0.9993505,0.4011477,-0.9153402,-0.035111655,-0.9157602,-0.40164316,0.008115766,0.12689268798828124,0.023942016601562498,11.310208642578125,0.8943993,0.08332768,31.701532,0.015335083
-0.08620061267483445,0.01505513018895872,0.9359494652870355,-0.079215966,0.011254707,-0.0043067,0.02110279,-0.029212449,0.9993505,0.38761312,-0.92115325,-0.03511166,-0.92158055,-0.38810232,0.008115767,0.2059013427734375,0.20350714111328125,11.245565197753905,0.8975584,0.08645003,31.87407,0.015342712
-0.07660796335089615,0.015987748873230498,1.012690659878542,-0.079215966,0.011254707,-0.0043067,0.020639202,-0.029541805,0.9993505,0.3730294,-0.92715496,-0.03511166,-0.92758995,-0.37351182,0.008115767,0.11252747802734374,0.1388636962890625,11.252747802734374,0.8975584,0.08645003,32.04663,0.015335083
-0.08500153150934216,0.014255742745297196,1.0433338452189005,-0.079215966,0.011254707,-0.0043067,0.020168731,-0.029864984,0.9993505,0.3582984,-0.9329467,-0.03511166,-0.9333893,-0.35877386,0.008115767,0.11252747802734374,-0.05985504150390625,11.156979736328124,0.8975584,0.08645003,32.21798,0.015357971
-0.08873200624642928,0.022382848422522698,0.9644609507776299,-0.079215966,0.011254707,-0.0043067,0.019718662,-0.03016404,0.9993505,0.34426928,-0.93821424,-0.03511166,-0.9386639,-0.34473807,0.008115767,0.15562310791015624,-0.29448680419921874,11.240776794433593,0.8975584,0.08176779,32.396706,0.015899658
-0.08673353763727547,0.009992343045769061,0.8577427270488163,-0.079215966,0.011254707,-0.0043067,0.019332403,-0.030413043,0.9993505,0.33227703,-0.9425281,-0.03511166,-0.9429836,-0.33274004,0.008115766,0.1197100830078125,-0.36391865234375,11.142614526367186,0.8975584,0.076181516,32.56775,0.015350342
-0.08593415019361393,0.010791730489430587,0.7542220530946488,-0.079215966,0.011254707,-0.0043067,0.018981896,-0.03063303,0.9993505,0.3214321,-0.9462815,-0.03511166,-0.94674236,-0.3218899,0.008115767,0.04548983154296875,-0.17956512451171874,11.21683477783203,0.8975584,0.076181516,32.73976,0.015335083
-0.08673353763727547,0.011191424211261349,0.8052496182483762,-0.079215966,0.011254707,-0.0043067,0.0185836,-0.03087628,0.9993505,0.3091506,-0.95036477,-0.03511166,-0.95083153,-0.3096024,0.008115767,0.2346317626953125,0.3184288208007812,11.274295617675781,0.9011583,0.08106708,32.91274,0.015342712
-0.07794027575699868,0.015454823910789483,0.9390137838210714,-0.079215966,0.011254707,-0.0043067,0.01812603,-0.031147102,0.9993505,0.2950953,-0.95482254,-0.03511166,-0.9552958,-0.29554012,0.008115766,0.15322890625,0.33758243408203126,11.276689819335937,0.9011583,0.086243935,33.085667,0.015335083
-0.08580091895300368,0.00985911180515881,0.9769846873949938,-0.079215966,0.011254707,-0.0043067,0.01765435,-0.031416856,0.9993505,0.28066546,-0.9591633,-0.03511166,-0.9596433,-0.28110313,0.008115767,0.24660277099609373,0.10295067138671875,11.111489904785156,0.90493804,0.086243935,33.255978,0.015327454
-0.08420214406568063,0.009192955602107537,0.9772511498762143,-0.079215966,0.011254707,-0.0043067,0.017175552,-0.03168115,0.9993505,0.26607737,-0.9633121,-0.03511166,-0.9637986,-0.2665077,0.008115766,0.09337386474609374,0.0383072265625,11.171344946289063,0.90493804,0.086243935,33.427204,0.015327454
-0.0814042880128653,0.01372281778285618,0.9757856062295015,-0.079215966,0.011254707,-0.0043067,0.01654746,-0.031932443,0.9993531,0.25169736,-0.9671703,-0.035071746,-0.9676645,-0.25211498,0.007966887,0.10295067138671875,-0.13646949462890623,11.250353601074218,0.90493804,0.086243935,33.599556,0.015319824
-0.08753292508093698,0.013989280264076687,0.9311531406250664,-0.079215966,0.011254707,-0.0043067,0.016093854,-0.032163445,0.9993531,0.23798351,-0.97063583,-0.03507175,-0.97113585,-0.2383941,0.007966888,0.1197100830078125,-0.34237083740234375,11.243170996093749,0.90493804,0.08099365,33.771973,0.015335083
-0.08286983165957809,0.018252679963604822,0.8787932630652365,-0.079215966,0.011254707,-0.0043067,0.015664747,-0.032374606,0.9993531,0.2250557,-0.97371453,-0.03507175,-0.97422,-0.22545959,0.007966888,0.00239420166015625,-0.22266075439453123,11.312602844238281,0.90493804,0.07757913,33.945454,0.015335083
-0.08899846872764978,0.012923430339194655,0.8274992354302886,-0.079215966,0.011254707,-0.0043067,0.015256764,-0.032568857,0.9993531,0.21280442,-0.9764652,-0.03507175,-0.9769757,-0.21320193,0.007966888,0.086191259765625,-0.07900865478515624,11.317391247558593,0.90493804,0.07757913,34.119007,0.015335083
-0.08526799399056267,0.012523736617363892,0.8107120991133967,-0.079215966,0.011254707,-0.0043067,0.014850123,-0.03275627,0.9993531,0.20063165,-0.97903883,-0.03507175,-0.9795542,-0.20102276,0.007966888,0.19153613281249998,-0.11013327636718749,11.283872424316405,0.90493804,0.07757913,34.29196,0.015327454
-0.07660796335089615,0.014655436467127957,0.8164410424596376,-0.079215966,0.011254707,-0.0043067,0.014434655,-0.032941464,0.9993531,0.18823335,-0.981498,-0.03507175,-0.98201823,-0.1886179,0.007966888,0.143652099609375,0.105344873046875,11.228805786132812,0.90493804,0.07757913,34.46407,0.015327454
-0.09259571222412663,0.016520673835671518,0.8260336917835758,-0.079215966,0.011254707,-0.0043067,0.014009776,-0.033124395,0.9993531,0.17559396,-0.98383784,-0.03507175,-0.984363,-0.1759718,0.007966889,0.143652099609375,0.062249243164062495,11.262324609375,0.90493804,0.07757913,34.636692,0.015327454
-0.080205206847373,0.009459418083328047,0.8731975509596057,-0.079215966,0.011254707,-0.0043067,0.013553284,-0.033313777,0.9993531,0.16205825,-0.9861577,-0.035071746,-0.98668814,-0.16242886,0.007966889,0.17477672119140625,0.2705447875976562,11.207257971191405,0.90493804,0.08172383,34.808384,0.015319824
-0.08286983165957809,0.013189892820415163,0.9387473213398508,-0.079215966,0.011254707,-0.0043067,0.013065595,-0.03350805,0.9993531,0.14764711,-0.9884181,-0.03507175,-0.9889538,-0.14800991,0.007966889,0.11731588134765625,0.105344873046875,11.425130322265625,0.90493804,0.08172383,34.983852,0.015357971
-0.0848683002687319,0.009326186842717792,0.9484732019043993,-0.079215966,0.011254707,-0.0043067,0.012555904,-0.033885583,0.9993469,0.1326805,-0.99053174,-0.035253692,-0.9910794,-0.13303657,0.0079410495,0.10295067138671875,0.0383072265625,11.394005700683593,0.90493804,0.08172383,35.165794,0.015968323
-0.0868667688778857,0.0191852986478766,0.9190290977295332,-0.079215966,0.011254707,-0.0043067,0.0120828105,-0.034057144,0.9993469,0.118873924,-0.99228334,-0.035253692,-0.9928359,-0.11922232,0.0079410495,0.18914193115234373,-0.19393033447265623,11.190498559570312,0.90493804,0.08172383,35.33774,0.015365601
-0.08593415019361393,0.014921898948348467,0.8726646259971648,-0.079215966,0.011254707,-0.0043067,0.011622495,-0.03421697,0.9993469,0.10548343,-0.993796,-0.035253692,-0.9943532,-0.105824344,0.0079410495,0.11731588134765625,-0.12210428466796874,11.161768139648437,0.90493804,0.08172383,35.508995,0.015342712
-0.0866003063966652,0.00866003063966652,0.8942480869760259,-0.079215966,0.011254707,-0.0043067,0.011139858,-0.034377128,0.9993469,0.091488704,-0.9951819,-0.035253692,-0.9957439,-0.091821745,0.0079410495,0.16998831787109375,0.13646949462890623,11.123460913085937,0.90493804,0.08172383,35.679573,0.015335083
-0.08260336917835759,0.008393568158446012,0.9611301697623735,-0.079215966,0.011254707,-0.0043067,0.010619002,-0.034541573,0.9993469,0.07643686,-0.996451,-0.035253692,-0.99701786,-0.076761365,0.007941049,0.18435352783203124,0.23223756103515625,11.3006318359375,0.90493804,0.08528344,35.852783,0.015327454
-0.08446860654690114,0.01372281778285618,1.0487963260839208,-0.079215966,0.011254707,-0.0043067,0.010049484,-0.03489555,0.9993405,0.06008207,-0.9975642,-0.035437718,-0.99814284,-0.060398642,0.00792839,0.09816226806640624,0.28730419921875,11.257536206054686,0.90493804,0.089684896,36.025246,0.015319824
-0.08366921910323963,0.014255742745297196,1.1120811653737914,-0.079215966,0.011254707,-0.0043067,0.009443096,-0.035064507,0.9993405,0.042781297,-0.9984558,-0.03543772,-0.9990398,-0.043087788,0.00792839,0.10773907470703124,0.16759411621093748,11.264718811035156,0.90493804,0.089684896,36.197906,0.015327454
-0.08580091895300368,0.010392036767599824,1.1445895880826935,-0.079215966,0.011254707,-0.0043067,0.008821017,-0.035414815,0.9993338,0.025150515,-0.9990487,-0.03562671,-0.99964476,-0.02544809,0.007921905,0.2609679809570312,0.09576806640624999,11.149797131347656,0.90894794,0.089684896,36.36923,0.015365601
-0.0846018377875114,0.006928024511733216,1.1316661577434988,-0.079215966,0.011254707,-0.0043067,0.008203308,-0.035562977,0.9993338,0.0077588893,-0.9993351,-0.03562671,-0.9999363,-0.008046044,0.007921905,0.09816226806640624,-0.033518823242187495,11.166556542968749,0.90894794,0.089684896,36.540554,0.015342712
-0.08620061267483445,0.013323124061025418,1.1275359892845809,-0.079215966,0.011254707,-0.0043067,0.0075873625,-0.03569946,0.9993338,-0.00951617,-0.9993199,-0.03562671,-0.999926,0.00923945,0.007921905,0.1580173095703125,-0.0526724365234375,11.094730493164063,0.90894794,0.089684896,36.710693,0.015335083
-0.0831362941407986,0.01438897398590745,1.1120811653737914,-0.079215966,0.011254707,-0.0043067,0.0069767865,-0.035823792,0.9993338,-0.026575422,-0.9990118,-0.03562671,-0.9996225,0.02630909,0.007921905,0.0526724365234375,0.02633621826171875,11.195286962890624,0.90894794,0.089684896,36.882202,0.015319824
-0.08433537530629089,0.014522205226517705,1.113413477779894,-0.079215966,0.011254707,-0.0043067,0.006360422,-0.035938345,0.9993338,-0.043731257,-0.99840796,-0.03562671,-0.99902314,0.043475457,0.007921905,-0.02633621826171875,0.00239420166015625,11.173739147949219,0.90894794,0.089684896,37.053467,0.015327454
-0.08260336917835759,0.014122511504686942,1.1214073522165093,-0.079215966,0.011254707,-0.0043067,0.0057417527,-0.036042362,0.9993338,-0.06088602,-0.99750876,-0.03562671,-0.9981283,0.060640834,0.007921905,-0.009576806640625,-0.07422025146484375,11.2240173828125,0.90894794,0.089684896,37.225418,0.015319824
-0.09352833090839843,0.011990811654922875,1.1232725895850528,-0.079215966,0.011254707,-0.0043067,0.005116592,-0.03613641,0.9993338,-0.078154996,-0.9963045,-0.03562671,-0.9969281,0.07792057,0.007921904,0.04548983154296875,0.016759411621093748,11.092336291503905,0.90894794,0.089684896,37.39535,0.015319824
-0.07767381327577817,0.010658499248820334,1.136329251164858,-0.079215966,0.011254707,-0.0043067,0.0044847014,-0.03622026,0.9993338,-0.09554319,-0.9947875,-0.035626706,-0.9954152,0.0953197,0.007921904,0.0430956298828125,0.1149216796875,11.262324609375,0.90894794,0.089684896,37.567974,0.015327454
-0.08739969384032674,0.016787136316892024,1.115545177629658,-0.079215966,0.011254707,-0.0043067,0.003866775,-0.036291428,0.9993338,-0.11248275,-0.9930148,-0.03562671,-0.9936462,0.11226998,0.007921904,0.13646949462890623,-0.1149216796875,11.432312927246093,0.90894794,0.089684896,37.74329,0.015335083
-0.0831362941407986,0.017186830038722786,1.1148790214266069,-0.079215966,0.011254707,-0.0043067,0.003206523,-0.036355715,0.9993338,-0.13051267,-0.99080634,-0.03562671,-0.99144155,0.13031141,0.007921904,0.17238251953125,0.2657563842773437,11.214440576171874,0.90894794,0.093906276,37.921425,0.0158844
-0.08646707515605495,0.01505513018895872,1.1886891287246877,-0.079215966,0.011254707,-0.0043067,0.0025254143,-0.03640937,0.9993338,-0.14903682,-0.9881897,-0.03562671,-0.9888284,0.14884748,0.007921903,0.15083470458984374,0.3447650390625,11.164162341308593,0.90894794,0.099206425,38.093056,0.01537323
-0.08713323135910622,0.01532159267017923,1.2783537536553886,-0.079215966,0.011254707,-0.0043067,0.0017982204,-0.036452524,0.9993338,-0.16873032,-0.98501825,-0.03562671,-0.9856606,0.16855375,0.007921903,0.07422025146484375,0.29927520751953124,11.305420239257812,0.90894794,0.10381638,38.2672,0.015403748
-0.0834027566220191,0.014255742745297196,1.3249846878689777,-0.079215966,0.011254707,-0.0043067,0.001044176,-0.036481913,0.9993338,-0.18905962,-0.9813192,-0.03562671,-0.98196507,0.18889637,0.007921903,0.04548983154296875,0.26815058593749996,11.264718811035156,0.90894794,0.10793668,38.44029,0.015365601
-0.08713323135910622,0.015188361429568975,1.38387289621871,-0.079215966,0.011254707,-0.0043067,0.00025950465,-0.03649593,0.9993338,-0.21011612,-0.9770272,-0.03562671,-0.97767645,0.20996681,0.007921903,0.0909796630859375,0.181959326171875,11.252747802734374,0.90894794,0.10793668,38.612766,0.015327454
-0.08380245034384987,0.01958499236970736,1.442627873327832,-0.079215966,0.011254707,-0.0043067,-0.0005539522,-0.03649265,0.9993338,-0.2318391,-0.9721015,-0.035626706,-0.97275406,0.23170434,0.007921903,-0.062249243164062495,0.21308394775390624,11.437101330566406,0.90894794,0.11120109,38.78798,0.015319824
-0.08247013793774732,0.01945176112909711,1.4602143970883856,-0.079215966,0.011254707,-0.0043067,-0.0013724205,-0.036471043,0.9993338,-0.25358707,-0.96665627,-0.035626706,-0.9673117,0.253467,0.007921903,0.040701428222656245,0.06464344482421874,11.2240173828125,0.90894794,0.11120109,38.95993,0.015319824
-0.08433537530629089,0.01505513018895872,1.438897398590745,-0.079215966,0.011254707,-0.0043067,-0.0021780576,-0.036431808,0.9993338,-0.27488723,-0.9608162,-0.035626706,-0.9614741,0.27478167,0.007921903,0.0143652099609375,-0.0526724365234375,11.305420239257812,0.90894794,0.11120109,39.1333,0.015335083
-0.08420214406568063,0.011990811654922875,1.4311699866353502,-0.079215966,0.011254707,-0.0043067,-0.0032628484,-0.036371563,0.999333,-0.29608536,-0.9544939,-0.035706308,-0.95515597,0.29600433,0.007654694,-0.07900865478515624,0.21068974609375,11.10191309814453,0.90894794,0.11443043,39.303463,0.015327454
-0.07754058203516792,0.014522205226517705,1.4759356834803956,-0.079215966,0.011254707,-0.0043067,-0.0040952223,-0.036459696,0.99932677,-0.31782255,-0.9474715,-0.035870202,-0.94814146,0.31775543,0.0077075814,0.023942016601562498,0.33039982910156246,11.020510241699219,0.90894794,0.11949209,39.472294,0.015319824
-0.09526033703633173,0.021583460978861175,1.5376217478829433,-0.079215966,0.011254707,-0.0043067,-0.0049655964,-0.036351386,0.99932677,-0.3403804,-0.93960345,-0.035870202,-0.9402747,0.3403293,0.0077075805,0.031124621582031248,0.229843359375,11.252747802734374,0.90894794,0.12302027,39.645027,0.015350342
-0.08193721297530632,0.016254211354451008,1.584652375818363,-0.079215966,0.011254707,-0.0043067,-0.0058516664,-0.036219314,0.99932677,-0.36322016,-0.9310127,-0.035870202,-0.93168503,0.36318547,0.0077075805,0.02633621826171875,0.22026655273437498,11.233594189453123,0.90894794,0.12639807,39.817295,0.015335083
-0.0863338439154447,0.016120980113840753,1.5823874447279886,-0.079215966,0.011254707,-0.0043067,-0.00672591,-0.0360672,0.99932677,-0.3856302,-0.9219559,-0.0358702,-0.922629,0.38561183,0.0077075805,0.0047884033203125,-0.1005564697265625,11.207257971191405,0.90894794,0.12639807,39.989246,0.015342712
-0.09006431865253181,0.018918836166656093,1.5326921919803638,-0.079215966,0.011254707,-0.0043067,-0.007564486,-0.035900686,0.99932677,-0.407008,-0.91272,-0.0358702,-0.91339326,0.40700528,0.0077075795,-0.13646949462890623,-0.18435352783203124,11.207257971191405,0.90894794,0.12639807,40.16128,0.015350342
-0.08819908128398825,0.013856049023466432,1.4498223603207858,-0.079215966,0.011254707,-0.0043067,-0.008355922,-0.035724774,0.99932677,-0.42707664,-0.9035037,-0.0358702,-0.90417683,0.4270888,0.0077075795,-0.009576806640625,-0.1005564697265625,11.209652172851563,0.90894794,0.12639807,40.33361,0.01537323
-0.08580091895300368,0.0095926493239383,1.3935987767832585,-0.079215966,0.011254707,-0.0043067,-0.009110923,-0.035539724,0.99932677,-0.4461227,-0.8942528,-0.0358702,-0.8949255,0.44614914,0.0077075795,-0.05746083984375,-0.0430956298828125,11.209652172851563,0.90894794,0.12639807,40.505684,0.015350342
-0.09046401237436258,0.015987748873230498,1.3207212881694494,-0.079215966,0.011254707,-0.0043067,-0.009824068,-0.03534924,0.99932677,-0.46402302,-0.88509667,-0.0358702,-0.8857687,0.464063,0.0077075795,0.040701428222656245,-0.105344873046875,11.168950744628905,0.90894794,0.12639807,40.677387,0.01537323
-0.08047166932859352,0.018652373685435583,1.2582358363232402,-0.079215966,0.011254707,-0.0043067,-0.010499758,-0.03515446,0.99932677,-0.4809013,-0.87604076,-0.0358702,-0.8767119,0.48095414,0.0077075795,-0.028730419921875,-0.03591302490234375,11.14022032470703,0.90894794,0.12639807,40.848392,0.015350342
-0.0860673814342242,0.015588055151399738,1.2310566632387485,-0.079215966,0.011254707,-0.0043067,-0.011164699,-0.03494897,0.99932677,-0.497432,-0.866761,-0.035870194,-0.86743116,0.4974976,0.0077075795,0.06703764648437499,0.06943184814453125,11.171344946289063,0.90894794,0.12639807,41.019962,0.015357971
-0.08380245034384987,0.01438897398590745,1.2148024518842975,-0.079215966,0.011254707,-0.0043067,-0.011815462,-0.034734365,0.99932677,-0.513533,-0.85731983,-0.0358702,-0.8579886,0.5136111,0.0077075795,0.1005564697265625,0.086191259765625,11.094730493164063,0.90894794,0.12639807,41.190525,0.01537323
-0.07794027575699868,0.014788667707738212,1.1874900475591954,-0.079215966,0.011254707,-0.0043067,-0.012443582,-0.034514323,0.99932677,-0.52899987,-0.84786355,-0.0358702,-0.8485307,0.52909,0.0077075786,-0.023942016601562498,0.0718260498046875,11.310208642578125,0.90894794,0.12639807,41.3644,0.01537323
-0.08526799399056267,0.019318529888486854,1.1533828499629701,-0.079215966,0.011254707,-0.0043067,-0.0130537795,-0.03428819,0.99932677,-0.5439546,-0.83834773,-0.0358702,-0.83901316,0.54405653,0.0077075786,0.03591302490234375,0.18435352783203124,11.142614526367186,0.90894794,0.12639807,41.535187,0.015327454
-0.08060490056920376,0.01438897398590745,1.139660032180114,-0.079215966,0.011254707,-0.0043067,-0.01364869,-0.034055755,0.99932677,-0.5584661,-0.82875144,-0.035870194,-0.8294151,0.5585796,0.0077075786,0.11013327636718749,0.08858546142578125,11.288660827636718,0.90894794,0.12639807,41.708298,0.015335083
-0.07913935692249098,0.014255742745297196,1.0952940290568995,-0.079215966,0.011254707,-0.0043067,-0.014214412,-0.033992834,0.99932104,-0.5721676,-0.81934583,-0.036009323,-0.8200136,0.57229084,0.0078030434,-0.01915361328125,-0.023942016601562498,11.271901416015623,0.90894794,0.12639807,41.881584,0.01537323
-0.08673353763727547,0.010658499248820334,1.0354732020228954,-0.079215966,0.011254707,-0.0043067,-0.014754788,-0.033761792,0.99932104,-0.58516335,-0.8101156,-0.036009323,-0.81078124,0.5852972,0.0078030434,0.07900865478515624,0.0,11.190498559570312,0.90894794,0.12639807,42.05362,0.01537323
-0.08500153150934216,0.018119448722994567,1.0197519156308854,-0.079215966,0.011254707,-0.0043067,-0.0152873015,-0.033524033,0.99932104,-0.5979121,-0.8007525,-0.036009323,-0.801416,0.5980565,0.0078030434,0.011971008300781249,0.11731588134765625,11.264718811035156,0.90894794,0.12639807,42.226707,0.015365601
-0.0868667688778857,0.013323124061025418,1.0458652387904952,-0.079215966,0.011254707,-0.0043067,-0.015830172,-0.03327113,0.99932104,-0.6108483,-0.7909285,-0.036009323,-0.7915895,0.61100346,0.0078030434,0.06703764648437499,0.29927520751953124,11.243170996093749,0.90894794,0.1309852,42.399036,0.015327454
-0.08953139369009079,0.016120980113840753,1.0849019922892997,-0.079215966,0.011254707,-0.0043067,-0.016385859,-0.033001002,0.99932104,-0.62402517,-0.7805741,-0.03600932,-0.7812325,0.62419146,0.0078030434,0.0718260498046875,0.14604630126953125,11.109095703125,0.90894794,0.1309852,42.56948,0.015342712
-0.09179632478046512,0.0031975497746461,1.0954272602975097,-0.079215966,0.011254707,-0.0043067,-0.016938135,-0.03272097,0.99932104,-0.6370548,-0.769977,-0.03600932,-0.77063245,0.6372321,0.0078030434,0.14604630126953125,0.28490999755859375,11.171344946289063,0.90894794,0.13535433,42.740795,0.015335083
-0.0816707504940858,0.014122511504686942,1.0762419616496333,-0.079215966,0.011254707,-0.0043067,-0.017471377,-0.03243938,0.99932104,-0.6495709,-0.7594479,-0.03600932,-0.7601003,0.64975893,0.0078030434,0.05746083984375,0.04548983154296875,11.257536206054686,0.90894794,0.13535433,42.913517,0.015342712
-0.08127105677225505,0.01372281778285618,1.0177534470217315,-0.079215966,0.011254707,-0.0043067,-0.017969664,-0.032166034,0.99932104,-0.6612078,-0.74933815,-0.03600932,-0.7499876,0.6614059,0.0078030434,-0.011971008300781249,-0.0526724365234375,11.142614526367186,0.90894794,0.13535433,43.084305,0.015327454
-0.08726646259971647,0.015454823910789483,0.9343506903997124,-0.079215966,0.011254707,-0.0043067,-0.01843008,-0.031904463,0.99932104,-0.67190856,-0.73975825,-0.03600932,-0.7404048,0.67211604,0.0078030434,0.03591302490234375,-0.14125789794921875,11.207257971191405,0.90894794,0.13535433,43.262497,0.015899658
-0.0866003063966652,0.012923430339194655,0.7788698326075458,-0.079215966,0.011254707,-0.0043067,-0.018790917,-0.03169328,0.99932104,-0.6802594,-0.7320864,-0.03600932,-0.7327305,0.6804742,0.0078030434,0.00718260498046875,-0.4285620971679687,11.228805786132812,0.90894794,0.12877575,43.434864,0.015350342
-0.0770076570727269,0.009992343045769061,0.59234609575319,-0.079215966,0.011254707,-0.0043067,-0.019070206,-0.031526018,0.99932104,-0.6867011,-0.7260475,-0.03600932,-0.72668964,0.6869216,0.0078030434,-0.0383072265625,-0.16280571289062498,11.197681164550781,0.90894794,0.12877575,43.606667,0.015342712
-0.08380245034384987,0.009725880564548555,0.5495788675172985,-0.079215966,0.011254707,-0.0043067,-0.019331912,-0.03136622,0.99932104,-0.69271964,-0.7203075,-0.03600932,-0.72094774,0.6929455,0.0078030434,0.10773907470703124,0.17956512451171874,11.235988391113281,0.90894794,0.12877575,43.778885,0.015327454
-0.07980551312554225,0.01212404289553313,0.5076110267250684,-0.079215966,0.011254707,-0.0043067,-0.019565368,-0.03122113,0.99932104,-0.6980739,-0.7151198,-0.03600932,-0.71575826,0.69830453,0.0078030434,0.105344873046875,-0.15083470458984374,11.166556542968749,0.90894794,0.12877575,43.950127,0.015335083
-0.07034609504221419,0.01505513018895872,0.3755788672803065,-0.079215966,0.011254707,-0.0043067,-0.01972872,-0.031118166,0.99932104,-0.701812,-0.7114516,-0.03600932,-0.7120889,0.70204604,0.007803044,0.05027823486328125,-0.33518823242187495,11.197681164550781,0.90894794,0.12363816,44.121758,0.015327454
-0.07607503838845513,0.016653905076281773,0.2435467078355446,-0.079215966,0.011254707,-0.0043067,-0.019834282,-0.031050988,0.99932104,-0.704224,-0.7090641,-0.036009315,-0.70970064,0.7044602,0.007803044,0.06703764648437499,-0.16759411621093748,11.276689819335937,0.90894794,0.12363816,44.294773,0.015342712
-0.07847320071943971,0.016254211354451008,0.1505513018895872,-0.079215966,0.011254707,-0.0043067,-0.019893263,-0.031013234,0.99932104,-0.70557034,-0.7077244,-0.036009315,-0.70836043,0.7058078,0.007803044,0.10295067138671875,-0.13646949462890623,11.214440576171874,0.90894794,0.12363816,44.46692,0.015350342
-0.07980551312554225,0.01052526800821008,0.03477335379927634,-0.079215966,0.011254707,-0.0043067,-0.019893263,-0.031013234,0.99932104,-0.70557034,-0.7077244,-0.036009315,-0.70836043,0.7058078,0.007803044,0.08140285644531249,-0.07900865478515624,11.250353601074218,0.90894794,0.12363816,44.639442,0.015335083
-0.07634150086967564,0.010658499248820334,-0.003863705977697371,-0.079215966,0.011254707,-0.0043067,-0.019893263,-0.031013234,0.99932104,-0.70557034,-0.7077244,-0.036009315,-0.70836043,0.7058078,0.007803044,0.02633621826171875,0.15562310791015624,11.269507214355468,0.90894794,0.12363816,44.812176,0.015327454
-0.07833996947882944,0.008526799399056265,-0.0057289433462409285,-0.079215966,0.011254707,-0.0043067,-0.019893263,-0.031013234,0.99932104,-0.70557034,-0.7077244,-0.036009315,-0.70836043,0.7058078,0.007803044,0.05746083984375,0.16280571289062498,11.192892761230468,0.90894794,0.12363816,44.983818,0.015335083
-0.07727411955394742,0.011990811654922875,-0.005462480865020421,-0.079215966,0.011254707,-0.0043067,-0.019893263,-0.031013234,0.99932104,-0.70557034,-0.7077244,-0.036009315,-0.70836043,0.7058078,0.007803044,0.05746083984375,0.1771709228515625,11.274295617675781,0.90894794,0.12363816,45.15671,0.015335083
-0.07913935692249098,0.011324655451871604,-0.004263399699528133,-0.079215966,0.011254707,-0.0043067,-0.019893263,-0.031013234,0.99932104,-0.70557034,-0.7077244,-0.036009315,-0.70836043,0.7058078,0.007803044,0.062249243164062495,0.11731588134765625,11.307814440917968,0.90894794,0.12363816,45.330116,0.015335083
-0.07927258816310122,0.011058192970651094,-0.006261868308681946,-0.079215966,0.011254707,-0.0043067,-0.019893263,-0.031013234,0.99932104,-0.70557034,-0.7077244,-0.036009315,-0.70836043,0.7058078,0.007803044,0.0718260498046875,0.13646949462890623,11.326968054199218,0.90894794,0.12363816,45.503815,0.015335083
-0.07740735079455767,0.008393568158446012,-0.0033307810152563544,-0.079215966,0.011254707,-0.0043067,-0.019893263,-0.031013234,0.99932104,-0.70557034,-0.7077244,-0.036009315,-0.70836043,0.7058078,0.007803044,0.15562310791015624,0.229843359375,11.317391247558593,0.90894794,0.12717335,45.677887,0.015380859
-0.07980551312554225,0.013989280264076687,-0.0011990811654922875,-0.079215966,0.011254707,-0.0043067,-0.019893263,-0.031013234,0.99932104,-0.70557034,-0.7077244,-0.036009315,-0.70836043,0.7058078,0.007803044,0.08140285644531249,0.1149216796875,11.314997045898437,0.90894794,0.12717335,45.851402,0.015335083
-0.07607503838845513,0.010258805526989571,-0.005196018383799912,-0.079215966,0.011254707,-0.0043067,-0.019893263,-0.031013234,0.99932104,-0.70557034,-0.7077244,-0.036009315,-0.70836043,0.7058078,0.007803044,0.1292868896484375,0.15322890625,11.259930407714844,0.90894794,0.12717335,46.030087,0.01586914
-0.08180398173469605,0.014255742745297196,-0.0039969372183076245,-0.079215966,0.011254707,-0.0043067,-0.019893263,-0.031013234,0.99932104,-0.70557034,-0.7077244,-0.036009315,-0.70836043,0.7058078,0.007803044,0.11013327636718749,0.12689268798828124,11.161768139648437,0.90894794,0.12717335,46.201424,0.015350342
-0.07980551312554225,0.013323124061025418,-0.0011990811654922875,-0.079215966,0.011254707,-0.0043067,-0.019893263,-0.031013234,0.99932104,-0.70557034,-0.7077244,-0.036009315,-0.70836043,0.7058078,0.007803044,0.08379705810546874,0.18435352783203124,11.286266625976562,0.90894794,0.12717335,46.374584,0.015342712
-0.07913935692249098,0.01185758041431262,-0.004529862180748642,-0.079215966,0.011254707,-0.0043067,-0.019893263,-0.031013234,0.99932104,-0.70557034,-0.7077244,-0.036009315,-0.70836043,0.7058078,0.007803044,0.11013327636718749,0.1149216796875,11.219228979492186,0.90894794,0.12717335,46.546974,0.015365601
-0.08193721297530632,0.009459418083328047,-0.004663093421358896,-0.079215966,0.011254707,-0.0043067,-0.019893263,-0.031013234,0.99932104,-0.70557034,-0.7077244,-0.036009315,-0.70836043,0.7058078,0.007803044,0.1149216796875,0.1484405029296875,11.209652172851563,0.90894794,0.12717335,46.718876,0.015335083
-0.08127105677225505,0.009992343045769061,-0.0035972434964768626,-0.079215966,0.011254707,-0.0043067,-0.019893263,-0.031013234,0.99932104,-0.70557034,-0.7077244,-0.036009315,-0.70836043,0.7058078,0.007803044,0.06943184814453125,0.201112939453125,11.298237634277344,0.90894794,0.13026357,46.89248,0.015365601
-0.08180398173469605,0.0075941807147844875,-0.003464012255866608,-0.079215966,0.011254707,-0.0043067,-0.019893263,-0.031013234,0.99932104,-0.70557034,-0.7077244,-0.036009315,-0.70836043,0.7058078,0.007803044,0.1149216796875,0.1149216796875,11.176133349609374,0.90894794,0.13026357,47.064293,0.01537323
-0.07860643196004995,0.013856049023466432,-0.004396630940138387,-0.079215966,0.011254707,-0.0043067,-0.019893263,-0.031013234,0.99932104,-0.70557034,-0.7077244,-0.036009315,-0.70836043,0.7058078,0.007803044,0.10295067138671875,0.09816226806640624,11.245565197753905,0.90894794,0.13026357,47.236744,0.015335083
-0.080205206847373,0.012257274136143382,-0.0030643185340358454,-0.079215966,0.011254707,-0.0043067,-0.019893263,-0.031013234,0.99932104,-0.70557034,-0.7077244,-0.036009315,-0.70836043,0.7058078,0.007803044,0.1197100830078125,0.181959326171875,11.250353601074218,0.90894794,0.13026357,47.409527,0.015357971
-0.07794027575699868,0.008526799399056265,-0.003464012255866608,-0.079215966,0.011254707,-0.0043067,-0.019893263,-0.031013234,0.99932104,-0.70557034,-0.7077244,-0.036009315,-0.70836043,0.7058078,0.007803044,0.1388636962890625,0.1292868896484375,11.264718811035156,0.90894794,0.13026357,47.582615,0.015365601
-0.08060490056920376,0.0127901990985844,-0.0033307810152563544,-0.079215966,0.011254707,-0.0043067,-0.019893263,-0.031013234,0.99932104,-0.70557034,-0.7077244,-0.036009315,-0.70836043,0.7058078,0.007803044,0.12210428466796874,0.1484405029296875,11.212046374511718,0.90894794,0.13026357,47.754894,0.015365601
-0.07967228188493199,0.009459418083328047,-0.0014655436467127959,-0.079215966,0.011254707,-0.0043067,-0.019893263,-0.031013234,0.99932104,-0.70557034,-0.7077244,-0.036009315,-0.70836043,0.7058078,0.007803044,0.05985504150390625,0.1388636962890625,11.262324609375,0.90894794,0.13026357,47.927948,0.015365601
-0.07833996947882944,0.008526799399056265,-0.006528330789902454,-0.079215966,0.011254707,-0.0043067,-0.019893263,-0.031013234,0.99932104,-0.70557034,-0.7077244,-0.036009315,-0.70836043,0.7058078,0.007803044,0.1580173095703125,0.1580173095703125,11.188104357910156,0.90894794,0.13026357,48.09986,0.015365601
-0.08087136305042428,0.011058192970651094,-0.001732006127933304,-0.079215966,0.011254707,-0.0043067,-0.019893263,-0.031013234,0.99932104,-0.70557034,-0.7077244,-0.036009315,-0.70836043,0.7058078,0.007803044,0.062249243164062495,0.1771709228515625,11.17852755126953,0.90894794,0.13026357,48.27154,0.015357971
-0.080205206847373,0.00985911180515881,-0.0037304747370871167,-0.079215966,0.011254707,-0.0043067,-0.019893263,-0.031013234,0.99932104,-0.70557034,-0.7077244,-0.036009315,-0.70836043,0.7058078,0.007803044,0.13646949462890623,0.19871873779296872,11.195286962890624,0.90894794,0.13026357,48.443306,0.015342712
-0.08007197560676275,0.010924961730040842,-0.002398162330984575,-0.079215966,0.011254707,-0.0043067,-0.019893263,-0.031013234,0.99932104,-0.70557034,-0.7077244,-0.036009315,-0.70836043,0.7058078,0.007803044,0.11731588134765625,0.143652099609375,11.264718811035156,0.90894794,0.13026357,48.61614,0.015342712
-0.08060490056920376,0.009192955602107537,-0.00479632466196915,-0.079215966,0.011254707,-0.0043067,-0.019893263,-0.031013234,0.99932104,-0.70557034,-0.7077244,-0.036009315,-0.70836043,0.7058078,0.007803044,0.105344873046875,0.16519991455078123,11.113884106445312,0.90894794,0.13026357,48.79293,0.015907288
-0.08087136305042428,0.01212404289553313,-0.0030643185340358454,-0.079215966,0.011254707,-0.0043067,-0.019893263,-0.031013234,0.99932104,-0.70557034,-0.7077244,-0.036009315,-0.70836043,0.7058078,0.007803044,0.07422025146484375,0.1005564697265625,11.214440576171874,0.90894794,0.13026357,48.965332,0.01537323
-0.07754058203516792,0.008260336917835759,-0.0018652373685435584,-0.079215966,0.011254707,-0.0043067,-0.019893263,-0.031013234,0.99932104,-0.70557034,-0.7077244,-0.036009315,-0.70836043,0.7058078,0.007803044,0.1149216796875,0.17238251953125,11.149797131347656,0.90894794,0.13026357,49.136486,0.015350342
-0.08073813180981403,0.011191424211261349,-0.002531393571594829,-0.079215966,0.011254707,-0.0043067,-0.019893263,-0.031013234,0.99932104,-0.70557034,-0.7077244,-0.036009315,-0.70836043,0.7058078,0.007803044,0.05027823486328125,0.16280571289062498,11.231199987792968,0.90894794,0.13026357,49.308716,0.015335083
-0.07927258816310122,0.008526799399056265,-0.0033307810152563544,-0.079215966,0.011254707,-0.0043067,-0.019893263,-0.031013234,0.99932104,-0.70557034,-0.7077244,-0.036009315,-0.70836043,0.7058078,0.007803044,0.14604630126953125,0.12210428466796874,11.180921752929686,0.90894794,0.13026357,49.480175,0.015335083
-0.08033843808798326,0.010125574286379316,-0.002398162330984575,-0.079215966,0.011254707,-0.0043067,-0.019893263,-0.031013234,0.99932104,-0.70557034,-0.7077244,-0.036009315,-0.70836043,0.7058078,0.007803044,0.09337386474609374,0.201112939453125,11.271901416015623,0.90894794,0.13334765,49.65303,0.015335083
-0.08193721297530632,0.011990811654922875,-0.006528330789902454,-0.079215966,0.011254707,-0.0043067,-0.019893263,-0.031013234,0.99932104,-0.70557034,-0.7077244,-0.036009315,-0.70836043,0.7058078,0.007803044,0.062249243164062495,0.16759411621093748,11.298237634277344,0.90894794,0.13334765,49.82612,0.015319824
-0.07980551312554225,0.010924961730040842,-0.0073277182335639785,-0.079215966,0.011254707,-0.0043067,-0.019893263,-0.031013234,0.99932104,-0.70557034,-0.7077244,-0.036009315,-0.70836043,0.7058078,0.007803044,0.16041151123046873,0.16041151123046873,11.228805786132812,0.90894794,0.13334765,49.998486,0.015350342
-0.07953905064432175,0.0073277182335639785,-0.003464012255866608,-0.079215966,0.011254707,-0.0043067,-0.019893263,-0.031013234,0.99932104,-0.70557034,-0.7077244,-0.036009315,-0.70836043,0.7058078,0.007803044,0.1292868896484375,0.17238251953125,11.226411584472656,0.90894794,0.13334765,50.170643,0.015335083
-0.07967228188493199,0.01372281778285618,-0.004396630940138387,-0.079215966,0.011254707,-0.0043067,-0.019893263,-0.031013234,0.99932104,-0.70557034,-0.7077244,-0.036009315,-0.70836043,0.7058078,0.007803044,0.033518823242187495,0.10295067138671875,11.267113012695312,0.90894794,0.13334765,50.34351,0.015342712
-0.07660796335089615,0.011457886692481857,-0.0021316998497640663,-0.079215966,0.011254707,-0.0043067,-0.019893263,-0.031013234,0.99932104,-0.70557034,-0.7077244,-0.036009315,-0.70836043,0.7058078,0.007803044,0.1771709228515625,0.19871873779296872,11.226411584472656,0.90894794,0.13334765,50.515667,0.015335083
-0.07887289444127048,0.01345635530163567,-0.005462480865020421,-0.079215966,0.011254707,-0.0043067,-0.019893263,-0.031013234,0.99932104,-0.70557034,-0.7077244,-0.036009315,-0.70836043,0.7058078,0.007803044,0.09576806640624999,0.21308394775390624,11.204863769531249,0.90894794,0.1366153,50.687496,0.015335083
-0.08100459429103453,0.011191424211261349,-0.006661562030512709,-0.079215966,0.011254707,-0.0043067,-0.019893263,-0.031013234,0.99932104,-0.70557034,-0.7077244,-0.036009315,-0.70836043,0.7058078,0.007803044,0.09816226806640624,0.1005564697265625,11.235988391113281,0.90894794,0.1366153,50.859715,0.015327454
-0.07660796335089615,0.012923430339194655,-0.005595712105630674,-0.079215966,0.011254707,-0.0043067,-0.019893263,-0.031013234,0.99932104,-0.70557034,-0.7077244,-0.036009315,-0.70836043,0.7058078,0.007803044,0.08140285644531249,0.15562310791015624,11.200075366210937,0.90894794,0.1366153,51.0313,0.015319824
-0.07634150086967564,0.014522205226517705,-0.004529862180748642,-0.079215966,0.011254707,-0.0043067,-0.019893263,-0.031013234,0.99932104,-0.70557034,-0.7077244,-0.036009315,-0.70836043,0.7058078,0.007803044,0.09816226806640624,0.17477672119140625,11.18571015625,0.90894794,0.1366153,51.202835,0.015335083
-0.07927258816310122,0.011457886692481857,-0.0026646248122050836,-0.079215966,0.011254707,-0.0043067,-0.019893263,-0.031013234,0.99932104,-0.70557034,-0.7077244,-0.036009315,-0.70836043,0.7058078,0.007803044,0.1292868896484375,0.1484405029296875,11.235988391113281,0.90894794,0.1366153,51.375053,0.015327454
-0.08180398173469605,0.010791730489430587,-0.001732006127933304,-0.079215966,0.011254707,-0.0043067,-0.019893263,-0.031013234,0.99932104,-0.70557034,-0.7077244,-0.036009315,-0.70836043,0.7058078,0.007803044,0.15322890625,0.15083470458984374,11.243170996093749,0.90894794,0.1366153,51.547554,0.015342712
-0.07820673823821919,0.011191424211261349,-0.0009326186842717792,-0.079215966,0.011254707,-0.0043067,-0.019893263,-0.031013234,0.99932104,-0.70557034,-0.7077244,-0.036009315,-0.70836043,0.7058078,0.007803044,0.1388636962890625,0.17477672119140625,11.212046374511718,0.90894794,0.1366153,51.71949,0.015335083
-0.07860643196004995,0.013856049023466432,-0.002398162330984575,-0.079215966,0.011254707,-0.0043067,-0.019893263,-0.031013234,0.99932104,-0.70557034,-0.7077244,-0.036009315,-0.70836043,0.7058078,0.007803044,0.09337386474609374,0.16759411621093748,11.243170996093749,0.90894794,0.1366153,51.892162,0.015357971
-0.08260336917835759,0.011457886692481857,-0.0031975497746461,-0.079215966,0.011254707,-0.0043067,-0.019893263,-0.031013234,0.99932104,-0.70557034,-0.7077244,-0.036009315,-0.70836043,0.7058078,0.007803044,0.086191259765625,0.15322890625,11.291055029296874,0.90894794,0.1366153,52.065655,0.015365601
-0.08260336917835759,0.01185758041431262,-0.00159877488732305,-0.079215966,0.011254707,-0.0043067,-0.019893263,-0.031013234,0.99932104,-0.70557034,-0.7077244,-0.036009315,-0.70836043,0.7058078,0.007803044,0.13407529296874998,0.15322890625,11.267113012695312,0.90894794,0.1366153,52.23878,0.015365601
-0.07993874436615249,0.009326186842717792,-0.002531393571594829,-0.079215966,0.011254707,-0.0043067,-0.019893263,-0.031013234,0.99932104,-0.70557034,-0.7077244,-0.036009315,-0.70836043,0.7058078,0.007803044,0.1292868896484375,0.15562310791015624,11.281478222656249,0.90894794,0.1366153,52.41213,0.015365601
-0.08007197560676275,0.012656967857974145,-0.003863705977697371,-0.079215966,0.011254707,-0.0043067,-0.019893263,-0.031013234,0.99932104,-0.70557034,-0.7077244,-0.036009315,-0.70836043,0.7058078,0.007803044,0.09816226806640624,0.21068974609375,11.197681164550781,0.90894794,0.13985269,52.584187,0.015365601
-0.07860643196004995,0.011591117933092112,-0.004130168458917879,-0.079215966,0.011254707,-0.0043067,-0.019893263,-0.031013234,0.99932104,-0.70557034,-0.7077244,-0.036009315,-0.70836043,0.7058078,0.007803044,0.08140285644531249,0.13168109130859373,11.257536206054686,0.90894794,0.13985269,52.757164,0.015365601
-0.08100459429103453,0.01345635530163567,-0.002264931090374321,-0.079215966,0.011254707,-0.0043067,-0.019893263,-0.031013234,0.99932104,-0.70557034,-0.7077244,-0.036009315,-0.70836043,0.7058078,0.007803044,0.17238251953125,0.08140285644531249,11.168950744628905,0.90894794,0.13985269,52.928783,0.015365601
-0.07967228188493199,0.009059724361497283,-0.005062787143189658,-0.079215966,0.011254707,-0.0043067,-0.019893263,-0.031013234,0.99932104,-0.70557034,-0.7077244,-0.036009315,-0.70836043,0.7058078,0.007803044,0.14604630126953125,0.19153613281249998,11.286266625976562,0.90894794,0.13985269,53.10203,0.015350342
-0.07807350699760894,0.009725880564548555,-0.003464012255866608,-0.079215966,0.011254707,-0.0043067,-0.019893263,-0.031013234,0.99932104,-0.70557034,-0.7077244,-0.036009315,-0.70836043,0.7058078,0.007803044,0.105344873046875,0.14125789794921875,11.214440576171874,0.90894794,0.13985269,53.27426,0.015357971
-0.0752756509447936,0.011058192970651094,-0.004396630940138387,-0.079215966,0.011254707,-0.0043067,-0.019893263,-0.031013234,0.99932104,-0.70557034,-0.7077244,-0.036009315,-0.70836043,0.7058078,0.007803044,0.08140285644531249,0.1388636962890625,11.250353601074218,0.90894794,0.13985269,53.447216,0.01537323
-0.07634150086967564,0.011591117933092112,-0.0009326186842717792,-0.079215966,0.011254707,-0.0043067,-0.019893263,-0.031013234,0.99932104,-0.70557034,-0.7077244,-0.036009315,-0.70836043,0.7058078,0.007803044,0.06464344482421874,0.11013327636718749,11.267113012695312,0.90894794,0.13985269,53.620342,0.015365601
-0.07847320071943971,0.00985911180515881,-0.0039969372183076245,-0.079215966,0.011254707,-0.0043067,-0.019893263,-0.031013234,0.99932104,-0.70557034,-0.7077244,-0.036009315,-0.70836043,0.7058078,0.007803044,0.1197100830078125,0.10773907470703124,11.238382592773437,0.90894794,0.13985269,53.793114,0.01537323
-0.07913935692249098,0.013189892820415163,-0.0002664624812205083,-0.079215966,0.011254707,-0.0043067,-0.019893263,-0.031013234,0.99932104,-0.70557034,-0.7077244,-0.036009315,-0.70836043,0.7058078,0.007803044,0.11731588134765625,0.16998831787109375,11.257536206054686,0.90894794,0.13985269,53.96609,0.015365601
-0.07860643196004995,0.010125574286379316,-0.0019984686091538122,-0.079215966,0.011254707,-0.0043067,-0.019893263,-0.031013234,0.99932104,-0.70557034,-0.7077244,-0.036009315,-0.70836043,0.7058078,0.007803044,0.06464344482421874,0.15322890625,11.202469567871093,0.90894794,0.13985269,54.14429,0.015907288
-0.07727411955394742,0.012656967857974145,-0.002797856052815337,-0.079215966,0.011254707,-0.0043067,-0.019893263,-0.031013234,0.99932104,-0.70557034,-0.7077244,-0.036009315,-0.70836043,0.7058078,0.007803044,0.076614453125,0.08140285644531249,11.233594189453123,0.90894794,0.13985269,54.31733,0.015403748
-0.07873966320066021,0.012923430339194655,0.06728177650817835,-0.079215966,0.011254707,-0.0043067,-0.019963847,-0.030967845,0.99932104,-0.70718044,-0.70611554,-0.036009315,-0.70675105,0.70741934,0.007803044,0.2059013427734375,1.0534487304687499,11.25514200439453,0.9121039,0.15599938,54.48984,0.015327454
-0.09219601850229589,0.0035972434964768626,0.4259402762309826,-0.079215966,0.011254707,-0.0043067,-0.020211803,-0.030806584,0.99932104,-0.7128261,-0.7004158,-0.036009315,-0.7010494,0.7130701,0.007803044,0.24660277099609373,1.1923124267578125,11.279084020996093,0.9158931,0.17431997,54.66315,0.015365601
-0.0831362941407986,0.00985911180515881,0.7969892813305405,-0.079215966,0.011254707,-0.0043067,-0.020630429,-0.030527825,0.99932104,-0.7223204,-0.69062054,-0.03600932,-0.6912507,0.722573,0.007803044,0.23702596435546874,1.1133037719726562,11.264718811035156,0.9195315,0.19140956,54.836067,0.015350342
-0.08073813180981403,0.02145022973825092,1.0990245037939865,-0.079215966,0.011254707,-0.0043067,-0.021382427,-0.030152472,0.99931663,-0.7345368,-0.67760456,-0.03616229,-0.6782317,0.73480827,0.0076592425,-0.07422025146484375,0.8786720092773437,11.243170996093749,0.9195315,0.20491758,55.00891,0.01537323
-0.07980551312554225,0.022782542144353463,1.25810260508263,-0.079215966,0.011254707,-0.0043067,-0.021969011,-0.029727804,0.99931663,-0.7476702,-0.6630849,-0.03616229,-0.66370666,0.74795383,0.0076592425,-0.016759411621093748,0.28969840087890625,11.3389390625,0.9195315,0.20936012,55.182796,0.015335083
-0.09206278726168562,0.004663093421358896,1.2710260354218248,-0.079215966,0.011254707,-0.0043067,-0.022543121,-0.029294837,0.99931663,-0.76042706,-0.64841574,-0.03616229,-0.6490319,0.76072276,0.0076592425,0.2442085693359375,0.08379705810546874,11.068394274902342,0.9232802,0.20936012,55.3527,0.015350342
-0.08420214406568063,0.02371516082862524,1.2263935698173896,-0.079215966,0.011254707,-0.0043067,-0.023086388,-0.029028216,0.999312,-0.77237374,-0.6341323,-0.036263943,-0.6347485,0.77267957,0.0077807764,0.28012159423828126,0.031124621582031248,11.353304272460937,0.9275844,0.20936012,55.52715,0.015365601
-0.0929954059459574,0.013589586542245924,1.1673721302270468,-0.079215966,0.011254707,-0.0043067,-0.023601273,-0.028611163,0.999312,-0.7835788,-0.62023324,-0.036263943,-0.6208438,0.7838956,0.0077807764,0.01915361328125,-0.02154781494140625,11.142614526367186,0.9275844,0.20936012,55.69811,0.015342712
-0.0831362941407986,0.010658499248820334,1.1340643200744835,-0.079215966,0.011254707,-0.0043067,-0.02409571,-0.02819602,0.999312,-0.79425603,-0.60650015,-0.036263943,-0.6071052,0.79458344,0.007780777,-0.040701428222656245,0.16041151123046873,11.135431921386719,0.9275844,0.20936012,55.869297,0.01537323
-0.08233690669713707,0.012390505376753637,1.1210076584946784,-0.079215966,0.011254707,-0.0043067,-0.024578046,-0.02777658,0.999312,-0.80459017,-0.5927223,-0.036263943,-0.5933216,0.80492795,0.007780777,0.047884033203124995,0.2154781494140625,11.195286962890624,0.9275844,0.21266943,56.041233,0.015357971
-0.08260336917835759,0.011324655451871604,1.1268698330815297,-0.079215966,0.011254707,-0.0043067,-0.02506174,-0.02749856,0.99930763,-0.81483954,-0.5785456,-0.036355574,-0.57914454,0.81518644,0.007907524,0.028730419921875,0.26815058593749996,11.235988391113281,0.9275844,0.21678972,56.213882,0.015365601
-0.08739969384032674,0.018385911204215073,1.1373951010897398,-0.079215966,0.011254707,-0.0043067,-0.025540108,-0.027054843,0.99930763,-0.8248597,-0.5641673,-0.03635557,-0.5647602,0.8252172,0.007907525,0.0047884033203125,0.18435352783203124,11.264718811035156,0.9275844,0.21678972,56.386887,0.015357971
-0.09113016857741385,0.011191424211261349,1.1262036768784784,-0.079215966,0.011254707,-0.0043067,-0.026007446,-0.02660591,0.99930763,-0.8345607,-0.5497153,-0.036355574,-0.5503018,0.8349284,0.007907525,0.0143652099609375,0.12449848632812499,11.425130322265625,0.9275844,0.21678972,56.562614,0.015380859
-0.08739969384032674,0.012390505376753637,1.126470139359699,-0.079215966,0.011254707,-0.0043067,-0.026469065,-0.026146706,0.99930763,-0.8440529,-0.5350263,-0.036355574,-0.5356063,0.8444308,0.007907525,0.15322890625,0.2753331909179687,11.149797131347656,0.9275844,0.22102039,56.733936,0.015365601
-0.0863338439154447,0.02464777951289702,1.1685712113925393,-0.079215966,0.011254707,-0.0043067,-0.026959755,-0.025640462,0.99930763,-0.85403925,-0.51893663,-0.03635557,-0.51950943,0.8544282,0.007907525,0.055066638183593745,0.430956298828125,11.319785449218749,0.9275844,0.22786915,56.91383,0.015892029
-0.08673353763727547,0.012923430339194655,1.2506416556084559,-0.079215966,0.011254707,-0.0043067,-0.027462084,-0.025257828,0.9993037,-0.86411494,-0.5019741,-0.036434475,-0.50254476,0.8645139,0.008040379,-0.02154781494140625,0.4836287353515625,11.209652172851563,0.9275844,0.23530778,57.086243,0.015380859
-0.09286217470534716,0.018385911204215073,1.289944871588481,-0.079215966,0.011254707,-0.0043067,-0.027970439,-0.024693694,0.9993037,-0.87415195,-0.4842838,-0.03643447,-0.4848463,0.8745625,0.008040379,0.011971008300781249,0.469263525390625,11.209652172851563,0.9275844,0.24251471,57.2584,0.015357971
-0.0863338439154447,0.013589586542245924,1.372947934488669,-0.079215966,0.011254707,-0.0043067,-0.028489629,-0.024092844,0.9993037,-0.8842605,-0.46557075,-0.036434475,-0.46612424,0.8846827,0.008040378,0.11731588134765625,0.2920926025390625,11.173739147949219,0.9275844,0.24699397,57.42975,0.015335083
-0.08673353763727547,0.016787136316892024,1.4039908135508583,-0.079215966,0.011254707,-0.0043067,-0.029000401,-0.023475537,0.9993037,-0.89405364,-0.4464758,-0.03643447,-0.44702014,0.89448774,0.008040378,0.040701428222656245,0.21068974609375,11.176133349609374,0.9275844,0.2502217,57.600964,0.015319824
-0.08620061267483445,0.0033307810152563544,1.3638882101271719,-0.079215966,0.011254707,-0.0043067,-0.029473528,-0.02287871,0.9993037,-0.90298057,-0.42813396,-0.03643447,-0.42866933,0.9034257,0.008040378,-0.16041151123046873,-0.2346317626953125,11.243170996093749,0.9275844,0.2466236,57.77338,0.015335083
-0.08393568158446013,0.011058192970651094,1.1849586539876005,-0.079215966,0.011254707,-0.0043067,-0.029871231,-0.022356965,0.9993037,-0.91036856,-0.4121914,-0.03643447,-0.41271886,0.910823,0.008040378,-0.13407529296874998,-0.3327940307617187,11.094730493164063,0.9275844,0.24151765,57.943604,0.015342712
-0.07927258816310122,0.019318529888486854,1.0185528344653931,-0.079215966,0.011254707,-0.0043067,-0.030209107,-0.02189827,0.9993037,-0.916556,-0.39824337,-0.03643447,-0.39876384,0.9170184,0.008040378,0.0143652099609375,-0.086191259765625,11.303026037597656,0.9275844,0.24151765,58.117283,0.015365601
-0.07780704451638844,0.021583460978861175,0.8979785617131131,-0.079215966,0.011254707,-0.0043067,-0.030496167,-0.021496702,0.9993037,-0.92174435,-0.38608292,-0.03643447,-0.38659722,0.9222136,0.008040378,-0.05746083984375,-0.430956298828125,11.341333264160156,0.9275844,0.23489575,58.29155,0.015365601
-0.08566768771239343,0.013189892820415163,0.7759387453141203,-0.079215966,0.011254707,-0.0043067,-0.030749295,-0.021133037,0.9993037,-0.92626417,-0.37510976,-0.03643447,-0.37561846,0.9267395,0.008040378,0.023942016601562498,0.14125789794921875,11.173739147949219,0.9275844,0.23489575,58.4629,0.015335083
-0.08566768771239343,0.013189892820415163,0.7603506901627206,-0.079215966,0.011254707,-0.0043067,-0.030997785,-0.020766843,0.9993037,-0.9306481,-0.36409724,-0.03643447,-0.36460027,0.93112946,0.008040378,0.0047884033203125,0.258573779296875,11.166556542968749,0.9275844,0.23886298,58.634224,0.015342712
-0.08473506902812164,0.017586523760553547,0.7798024512918177,-0.079215966,0.011254707,-0.0043067,-0.031248711,-0.020387312,0.9993037,-0.9350186,-0.3527218,-0.036434468,-0.35321894,0.93550617,0.008040378,-0.05746083984375,0.27293898925781246,11.367669482421874,0.9275844,0.24304643,58.80846,0.015327454
-0.08273660041896783,0.012390505376753637,0.8457519153938935,-0.079215966,0.011254707,-0.0043067,-0.031515982,-0.02016684,0.99929976,-0.9395864,-0.34036022,-0.036501464,-0.34085792,0.9400789,0.008221665,0.00718260498046875,0.32082302246093747,11.257536206054686,0.9275844,0.24797606,58.981438,0.015365601
-0.08553445647178318,0.01532159267017923,0.9106355295710873,-0.079215966,0.011254707,-0.0043067,-0.0318025,-0.01971191,0.99929976,-0.94438,-0.3268243,-0.036501464,-0.32731488,0.9448796,0.008221665,-0.076614453125,0.23223756103515625,11.113884106445312,0.9275844,0.25153923,59.151955,0.015342712
-0.08580091895300368,0.019318529888486854,1.049462482286972,-0.079215966,0.011254707,-0.0043067,-0.032130677,-0.019172328,0.99929976,-0.94976175,-0.3108382,-0.036501464,-0.31132025,0.9502695,0.008221665,0.040701428222656245,0.5674257934570313,11.176133349609374,0.9275844,0.2602321,59.32317,0.015319824
-0.08260336917835759,0.01692036755750228,1.2684946418502299,-0.079215966,0.011254707,-0.0043067,-0.03251668,-0.01851011,0.99929976,-0.95592993,-0.2913172,-0.036501464,-0.29178876,0.9564475,0.008221665,0.009576806640625,0.7110778930664062,11.145008728027342,0.9275844,0.27113652,59.49408,0.015335083
-0.08899846872764978,0.020517611053979142,1.5749264952538145,-0.079215966,0.011254707,-0.0043067,-0.033177514,-0.017637743,0.9992938,-0.96332175,-0.26583096,-0.036675096,-0.26629,0.9638583,0.008171175,-0.062249243164062495,0.8714894042968749,11.123460913085937,0.9275844,0.28497297,59.670685,0.01587677
-0.08846554376520875,0.010125574286379316,1.8563108754226714,-0.079215966,0.011254707,-0.0043067,-0.03368235,-0.016976712,0.9992884,-0.9706643,-0.23761317,-0.036754217,-0.23806794,0.9712116,0.008475281,-0.01915361328125,0.5410895751953124,10.94868419189453,0.9275844,0.29329127,59.839,0.01537323
-0.09033078113375233,0.016520673835671518,1.8164747344802052,-0.079215966,0.011254707,-0.0043067,-0.034130923,-0.01605583,0.9992884,-0.9767586,-0.21116772,-0.036754213,-0.21160746,0.97731805,0.00847528,-0.01915361328125,-0.28730419921875,11.288660827636718,0.9275844,0.28888762,60.012028,0.015327454
-0.10138897410440342,0.015854517632620246,1.6122312426246856,-0.079215966,0.011254707,-0.0043067,-0.034504186,-0.01540987,0.99928576,-0.98149294,-0.1879318,-0.036787808,-0.18836431,0.9820612,0.008640204,0.1388636962890625,-0.4165910888671875,11.37006368408203,0.9275844,0.28250235,60.186302,0.015327454
-0.09632618696121377,0.017986217482384312,1.3804088839628432,-0.079215966,0.011254707,-0.0043067,-0.034811534,-0.0147023825,0.99928576,-0.9851244,-0.16785906,-0.036787808,-0.16827989,0.98570144,0.008640205,0.21787235107421873,-0.3064578125,11.276689819335937,0.9309255,0.2778028,60.35923,0.015335083
-0.080205206847373,0.017186830038722786,1.1922863722211645,-0.079215966,0.011254707,-0.0043067,-0.035304982,-0.0140745165,0.9992775,-0.98796374,-0.15019082,-0.037020564,-0.15060319,0.9885569,0.008602587,0.181959326171875,0.08858546142578125,11.171344946289063,0.9309255,0.2778028,60.530457,0.015327454
-0.08180398173469605,0.02398162330984575,1.1176768774794221,-0.079215966,0.011254707,-0.0043067,-0.03554359,-0.013460566,0.9992775,-0.9904182,-0.13304682,-0.037020564,-0.13344885,0.9910184,0.008602587,0.1484405029296875,0.2705447875976562,11.171344946289063,0.9309255,0.2819599,60.70211,0.015365601
-0.08380245034384987,0.016254211354451008,1.233454825569733,-0.079215966,0.011254707,-0.0043067,-0.03603177,-0.012760734,0.9992692,-0.99282163,-0.11365557,-0.037250582,-0.114047706,0.99343836,0.008573881,0.01915361328125,0.5339069702148437,11.379640490722656,0.9309255,0.2901474,60.876617,0.015335083
-0.06008728951522463,0.0026646248122050836,1.3389739681330544,-0.079215966,0.011254707,-0.0043067,-0.03585735,-0.012020001,0.9992846,-0.9949687,-0.093173735,-0.03682314,-0.09354954,0.99557734,0.0086185215,0.34715924072265625,0.74699091796875,11.63821427001953,0.9362492,0.30160257,61.05509,0.015335083
-0.07927258816310122,0.00866003063966652,1.4750030647961239,-0.079215966,0.011254707,-0.0043067,-0.03613231,-0.011166303,0.9992846,-0.9968985,-0.06955293,-0.03682314,-0.06991419,0.99751574,0.008618521,0.06464344482421874,0.8188169677734375,11.463437548828125,0.9362492,0.3141467,61.23071,0.015319824
-0.08180398173469605,0.008926493120887028,1.7281424219556067,-0.079215966,0.011254707,-0.0043067,-0.036416624,-0.010200974,0.9992846,-0.9983961,-0.043003697,-0.036823135,-0.043348417,0.99902284,0.008618521,0.03591302490234375,0.3758896606445312,11.250353601074218,0.9362492,0.31990814,61.40315,0.015327454
-0.080205206847373,0.016387442595061263,1.7915604924860877,-0.079215966,0.011254707,-0.0043067,-0.03668208,-0.009200848,0.9992846,-0.999199,-0.015672866,-0.036823135,-0.01600031,0.9998349,0.008618521,0.08140285644531249,-0.22266075439453123,11.046846459960937,0.9362492,0.31649533,61.572468,0.015327454
-0.09885758053280859,0.0010658499248820332,1.7094900482701711,-0.079215966,0.011254707,-0.0043067,-0.036911123,-0.008234073,0.9992846,-0.9992658,0.010580455,-0.03682313,0.010269829,0.9999101,0.00861852,0.08379705810546874,0.00239420166015625,11.214440576171874,0.9362492,0.31649533,61.744442,0.015335083
-0.07234456365136802,0.0095926493239383,1.6544655458981363,-0.079215966,0.011254707,-0.0043067,-0.03710465,-0.00731273,0.9992846,-0.99869287,0.03545092,-0.03682313,0.03515643,0.9993447,0.00861852,0.19871873779296872,0.12449848632812499,11.080365283203124,0.9362492,0.31649533,61.914444,0.015342712
-0.09259571222412663,0.0191852986478766,1.5624027586364506,-0.079215966,0.011254707,-0.0043067,-0.037268285,-0.0064269872,0.9992846,-0.99756527,0.059225313,-0.036823127,0.058946438,0.998224,0.00861852,0.12689268798828124,0.12689268798828124,11.180921752929686,0.9362492,0.31649533,62.08582,0.015327454
-0.09033078113375233,0.011191424211261349,1.5360229729956203,-0.079215966,0.011254707,-0.0043067,-0.037416026,-0.005834745,0.9992827,-0.9958486,0.08325501,-0.036801197,0.082980715,0.99651116,0.008925547,0.1292868896484375,0.5339069702148437,11.192892761230468,0.9362492,0.32469505,62.25772,0.015357971
-0.09033078113375233,0.016254211354451008,1.6307503850695109,-0.079215966,0.011254707,-0.0043067,-0.037551634,-0.0048865173,0.9992827,-0.9934242,0.10841629,-0.036801193,0.10815886,0.9940936,0.008925547,0.1149216796875,0.26815058593749996,11.346121667480467,0.9362492,0.32882762,62.43258,0.015411377
-0.08966462493070106,0.02851148549059439,1.6251546729638804,-0.079215966,0.011254707,-0.0043067,-0.03789727,-0.0039344206,0.9992739,-0.9903634,0.13344991,-0.03703378,0.13320746,0.9910477,0.008953844,0.08858546142578125,0.35673604736328124,11.190498559570312,0.9362492,0.33430907,62.604527,0.015365601
-0.08380245034384987,0.018385911204215073,1.6651240451469564,-0.079215966,0.011254707,-0.0043067,-0.037985053,-0.0029696403,0.9992739,-0.98665047,0.158586,-0.03703378,0.15836102,0.9873407,0.008953844,0.13407529296874998,0.239420166015625,11.274295617675781,0.9362492,0.33798608,62.777676,0.015357971
-0.0863338439154447,0.011591117933092112,1.6130306300683472,-0.079215966,0.011254707,-0.0043067,-0.03804571,-0.0020510664,0.9992739,-0.982531,0.18237688,-0.037033778,0.18216865,0.9832266,0.008953844,0.05746083984375,-0.2154781494140625,11.176133349609374,0.9362492,0.33467677,62.949318,0.015357971
-0.09552679951755223,0.008793261880276773,1.3983951014452278,-0.079215966,0.011254707,-0.0043067,-0.03807992,-0.0012659777,0.9992739,-0.97856075,0.20260175,-0.037033778,0.20240791,0.97926044,0.008953844,0.24899697265624998,-0.39264907226562495,11.137826123046874,0.94007516,0.32864347,63.120457,0.015365601
-0.08286983165957809,0.015188361429568975,1.1481868315791703,-0.079215966,0.011254707,-0.0043067,-0.038095366,-0.0006528954,0.9992739,-0.975173,0.218326,-0.037033778,0.21814343,0.9758756,0.008953843,0.19632453613281248,-0.6200982299804687,11.245565197753905,0.94007516,0.31911528,63.29325,0.015365601
-0.07807350699760894,0.0287779479718149,0.711854518580588,-0.079215966,0.011254707,-0.0043067,-0.038372938,-0.0002796103,0.99926347,-0.97298485,0.22783607,-0.037299916,0.22765799,0.9736995,0.009014745,0.46686932373046874,-0.23702596435546874,11.200075366210937,0.9472453,0.31547505,63.465263,0.015357971
-0.0912633998180241,0.036105666205378875,0.5137396637931401,-0.079215966,0.011254707,-0.0043067,-0.03867295,1.7468294e-05,0.99925196,-0.9711877,0.23533255,-0.037590787,0.23515731,0.97191495,0.009083987,0.19393033447265623,0.086191259765625,11.180921752929686,0.9472453,0.31547505,63.63664,0.015327454
-0.07540888218540386,0.01971822361031762,0.45338591179669496,-0.079215966,0.011254707,-0.0043067,-0.03867191,0.00028429573,0.99925196,-0.9695409,0.24202776,-0.037590787,0.24185754,0.9702693,0.009083987,0.2753331909179687,0.277727392578125,11.267113012695312,0.95146966,0.31973615,63.809505,0.015342712
-0.08060490056920376,0.010258805526989571,0.4030245028460189,-0.079215966,0.011254707,-0.0043067,-0.038669452,0.0005204801,0.99925196,-0.96804464,0.24794474,-0.037590787,0.24777898,0.9687741,0.009083987,0.2920926025390625,0.15083470458984374,11.252747802734374,0.95594895,0.31973615,63.982067,0.015335083
-0.08926493120887029,0.008793261880276773,0.34160490092469165,-0.079215966,0.011254707,-0.0043067,-0.03866688,0.00051390205,0.9992521,-0.9668001,0.25276142,-0.03754098,0.25259182,0.9675285,0.009276603,0.239420166015625,0.13168109130859373,11.317391247558593,0.9596186,0.31973615,64.15553,0.015327454
-0.07967228188493199,-0.0010658499248820332,0.2467442576101907,-0.079215966,0.011254707,-0.0043067,-0.038459886,0.0006448895,0.99926,-0.96594363,0.25604388,-0.0373427,0.25587863,0.96666497,0.009224439,0.28969840087890625,0.047884033203124995,11.192892761230468,0.964059,0.31973615,64.327095,0.015327454
-0.08033843808798326,0.005462480865020421,0.15681317019826913,-0.079215966,0.011254707,-0.0043067,-0.03845826,0.00073531136,0.99926,-0.965339,0.25831422,-0.0373427,0.25815067,0.9660607,0.009224439,0.30406361083984373,0.1771709228515625,11.197681164550781,0.96871954,0.31973615,64.498726,0.015327454
-0.07607503838845513,0.01505513018895872,0.1414915775280899,-0.079215966,0.011254707,-0.0043067,-0.03845647,0.00082364335,0.99926,-0.96474314,0.2605308,-0.0373427,0.2603689,0.9654652,0.009224439,0.2346317626953125,0.316034619140625,11.183315954589844,0.97231406,0.32457775,64.67005,0.015319824
-0.07127871372648598,0.010924961730040842,0.16200918858206906,-0.079215966,0.011254707,-0.0043067,-0.038453974,0.0010903333,0.9992598,-0.96406084,0.2630382,-0.03738631,0.2628844,0.9647848,0.009063665,0.19871873779296872,0.26336218261718747,11.305420239257812,0.97231406,0.3286144,64.84334,0.015327454
-0.07154517620770649,0.020251148572758632,0.1967825423813454,-0.079215966,0.011254707,-0.0043067,-0.038449917,0.001225116,0.9992598,-0.9631329,0.2664158,-0.03738631,0.26626456,0.9638574,0.009063665,0.14604630126953125,0.488417138671875,11.283872424316405,0.97231406,0.33639127,65.023,0.015922546
-0.0866003063966652,0.011724349173702367,0.2487427262193445,-0.079215966,0.011254707,-0.0043067,-0.03844496,0.0011955195,0.99926007,-0.9620333,0.27036658,-0.03733605,0.2702113,0.9627567,0.009244051,0.181959326171875,0.35194764404296874,11.350910070800781,0.97231406,0.34180185,65.1975,0.01537323
-0.08380245034384987,0.0063950995492922,0.3152251152838613,-0.079215966,0.011254707,-0.0043067,-0.03843838,0.0013910747,0.99926007,-0.96064544,0.27525696,-0.03733605,0.2751054,0.96136963,0.009244051,0.15562310791015624,0.3016694091796875,11.18571015625,0.97231406,0.3464234,65.368866,0.015319824
-0.08047166932859352,0.01572128639200999,0.2963062791172053,-0.079215966,0.011254707,-0.0043067,-0.038431674,0.0015654394,0.99926007,-0.9593868,0.27961218,-0.03733605,0.2794639,0.9601117,0.009244051,0.24899697265624998,0.30406361083984373,11.312602844238281,0.97613436,0.35108855,65.542435,0.015342712
-0.08233690669713707,0.0058621745868511835,0.3165574276899639,-0.079215966,0.011254707,-0.0043067,-0.038423084,0.0017637286,0.99926007,-0.9579312,0.28455895,-0.03733605,0.2844144,0.95865685,0.009244051,0.2537853759765625,0.258573779296875,11.207257971191405,0.98003584,0.35506368,65.71473,0.01537323
-0.08153751925347555,0.026779479362661087,0.33560949509723026,-0.079215966,0.011254707,-0.0043067,-0.038651563,0.0019633924,0.9992509,-0.95643514,0.28951818,-0.03756416,0.28937522,0.9571705,0.009312422,0.09816226806640624,-0.3902548706054687,11.034875451660156,0.98003584,0.34907314,65.88412,0.015350342
-0.07794027575699868,0.013056661579804908,0.3497320066019172,-0.079215966,0.011254707,-0.0043067,-0.03864027,0.0021743951,0.9992509,-0.9548402,0.29473585,-0.03756416,0.2945969,0.9555763,0.009312422,0.35673604736328124,0.2561795776367187,11.489773767089844,0.9855064,0.35300168,66.06031,0.015335083
-0.08859877500581902,0.018652373685435583,0.3386738136312661,-0.079215966,0.011254707,-0.0043067,-0.03862854,0.002373634,0.9992509,-0.9533075,0.29965603,-0.03756416,0.29952088,0.95404434,0.009312422,0.38307226562499996,0.105344873046875,11.204863769531249,0.99138963,0.35300168,66.23239,0.015357971
-0.08326952538140886,0.010258805526989571,0.33680857626272254,-0.079215966,0.011254707,-0.0043067,-0.038616028,0.0023171022,0.9992515,-0.95169526,0.30474752,-0.037484746,0.30460644,0.95243037,0.009562914,0.34715924072265625,0.20350714111328125,11.29344923095703,0.99672127,0.35612714,66.40584,0.015357971
-0.08766615632154724,0.0075941807147844875,0.41115160852324434,-0.079215966,0.011254707,-0.0043067,-0.038599975,0.0024203588,0.99925184,-0.94960815,0.31119594,-0.03743593,0.31105387,0.9503426,0.009713712,0.13646949462890623,0.3112462158203125,11.274295617675781,0.99672127,0.36090964,66.57907,0.015365601
-0.08873200624642928,0.008260336917835759,0.5208009195454836,-0.079215966,0.011254707,-0.0043067,-0.038578425,0.0025755018,0.99925226,-0.94688797,0.3193837,-0.037379835,0.31924134,0.94762194,0.009882558,0.16519991455078123,0.38786066894531246,11.0707884765625,0.99672127,0.36697292,66.75214,0.01563263
-0.09446094959267021,-0.0002664624812205083,0.6373782550794559,-0.079215966,0.011254707,-0.0043067,-0.03833478,0.002989659,0.9992605,-0.9434015,0.32956243,-0.03717773,0.32943,0.94412905,0.0098132035,0.21308394775390624,0.7733271362304687,11.326968054199218,1.0000263,0.37896767,66.927826,0.015510559
-0.06475038293658353,0.010791730489430587,0.7640811648998077,-0.079215966,0.011254707,-0.0043067,-0.03855817,0.003935133,0.9992486,-0.9396282,0.34012553,-0.0375969,0.34001806,0.9403718,0.009417005,0.11252747802734374,-0.6847416748046875,10.984597216796875,1.0000263,0.36838874,67.097534,0.015449524
-0.08113782553164478,0.020384379813368887,0.7135865247085214,-0.079215966,0.011254707,-0.0043067,-0.03851306,0.004092939,0.99924976,-0.9357466,0.3506735,-0.037501756,0.35056403,0.93648887,0.009675504,0.19871873779296872,0.5889736083984375,11.238382592773437,1.0000263,0.37751508,67.271675,0.0154953
-0.09379479338961894,-0.03850382853636345,1.1341975513150937,-0.079215966,0.011254707,-0.0043067,-0.03861889,0.0055811196,0.9992385,-0.9283668,0.36972338,-0.037944727,0.3696537,0.9291251,0.009096926,0.2059013427734375,2.3870190551757813,11.180921752929686,1.003209,0.4144116,67.4445,0.015457153
-0.08766615632154724,0.005995405827461438,1.6152955611587216,-0.079215966,0.011254707,-0.0043067,-0.038460985,0.006581821,0.9992385,-0.9184555,0.3937,-0.037944723,0.39365003,0.9192153,0.009096925,0.13168109130859373,0.814028564453125,11.123460913085937,1.003209,0.42691964,67.615425,0.015365601
-0.07953905064432175,0.003863705977697371,1.7826339993652007,-0.079215966,0.011254707,-0.0043067,-0.038259655,0.0076659406,0.9992385,-0.90696454,0.41949457,-0.037944723,0.41946608,0.90772545,0.009096925,0.28969840087890625,0.6703764648437499,11.437101330566406,1.0078173,0.4375835,67.797356,0.015907288
-0.09179632478046512,0.014122511504686942,1.8453859136926305,-0.079215966,0.011254707,-0.0043067,-0.03802695,0.008591314,0.99923986,-0.89458597,0.44528836,-0.037872627,0.44527534,0.8953459,0.009247233,0.13646949462890623,0.5817910034179687,11.29344923095703,1.0078173,0.44652307,67.97089,0.015365601
-0.09179632478046512,0.008393568158446012,1.8680352245963736,-0.079215966,0.011254707,-0.0043067,-0.03793338,0.00950086,0.9992352,-0.8815397,0.47058305,-0.037939586,0.47058374,0.88230455,0.0094753625,0.28012159423828126,0.5889736083984375,11.06360587158203,1.0121022,0.45553255,68.14013,0.015296936
-0.08739969384032674,0.01958499236970736,1.7823675368839802,-0.079215966,0.011254707,-0.0043067,-0.03785666,0.010278602,0.99923044,-0.8686924,0.4938928,-0.037991405,0.4939033,0.86946195,0.00976813,0.277727392578125,0.15322890625,11.439495532226562,1.0163549,0.45553255,68.31529,0.015312195
-0.08966462493070106,0.015188361429568975,1.704693723608202,-0.079215966,0.011254707,-0.0043067,-0.037581373,0.011243534,0.99923044,-0.85577554,0.5159506,-0.03799141,0.5159808,0.8565445,0.00976813,0.2705447875976562,0.1484405029296875,11.276689819335937,1.0205017,0.45553255,68.48814,0.015327454
-0.08859877500581902,0.014921898948348467,1.6102327740155318,-0.079215966,0.011254707,-0.0043067,-0.037296265,0.011998336,0.99923235,-0.8428614,0.53679407,-0.037905157,0.53683686,0.843628,0.009907418,0.277727392578125,0.1580173095703125,11.274295617675781,1.024748,0.45553255,68.660515,0.015289307
