GyroX,GyroY,GyroZ,ExpGravityX,ExpGravityY,ExpGravityZ,ExpOxX,ExpOxY,ExpOxZ,ExpOyX,ExpOyY,ExpOyZ,AccX,AccY,AccZ,ExpSpeedX,ExpSpeedY,ExpSpeedZ,dT
0.0,0.0,0.0,0.10646693,-0.022106709,0.9940705,0.9943163,0.0023670874,-0.10644062,-2.3283067e-10,-0.9997529,-0.022233076,-0.05935233039855958,-0.04031837410926817,0.0007664871215808944,0.0,0.0,0.0,0.0044555664
0.0,0.0,0.0,0.10646693,-0.022106709,0.9940705,0.9943163,0.0023670874,-0.10644062,-2.3283067e-10,-0.9997529,-0.022233076,-0.0449871204376221,-0.04031837410926817,0.06301573028564356,0.0,0.0,0.0,0.025939941
0.0,0.0,0.0,0.10646693,-0.022106709,0.9940705,0.9943163,0.0023670874,-0.10644062,-2.3283067e-10,-0.9997529,-0.022233076,-0.0018914905548096383,0.036296079015731814,-0.0183871261596682,0.0,0.0,0.0,0.025817871
0.0,0.0,0.0,0.10646693,-0.022106709,0.9940705,0.9943163,0.0023670874,-0.10644062,-2.3283067e-10,-0.9997529,-0.022233076,0.002896912765502857,-0.002011147546768177,-0.03275233612060546,0.0,0.0,0.0,0.025817871
0.0,0.0,0.0,0.10646693,-0.022106709,0.9940705,0.9943163,0.0023670874,-0.10644062,-2.3283067e-10,-0.9997529,-0.022233076,-0.04977552375793459,-0.03792417244911192,0.02231430206298768,0.0,0.0,0.0,0.025817871
0.0,0.0,0.0,0.10646693,-0.022106709,0.9940705,0.9943163,0.0023670874,-0.10644062,-2.3283067e-10,-0.9997529,-0.022233076,-0.0401987171173096,0.04587288565635683,-0.03993494110107498,0.0,0.0,0.0,0.025817871
0.0,0.0,0.0,0.10646693,-0.022106709,0.9940705,0.9943163,0.0023670874,-0.10644062,-2.3283067e-10,-0.9997529,-0.022233076,-0.0449871204376221,0.036296079015731814,0.0031606887817385854,0.0,0.0,0.0,0.025756836
0.0,0.0,0.0,0.10646693,-0.022106709,0.9940705,0.9943163,0.0023670874,-0.10644062,-2.3283067e-10,-0.9997529,-0.022233076,-0.07132333869934082,-0.025953164148330682,0.02231430206298768,0.0,0.0,0.0,0.0256958
0.0,0.0,0.0,0.10646693,-0.022106709,0.9940705,0.9943163,0.0023670874,-0.10644062,-2.3283067e-10,-0.9997529,-0.022233076,0.03402153434753408,-0.006799550867080673,-0.03035813446044955,0.0,0.0,0.0,0.025817871
0.0,0.0,0.0,0.10646693,-0.022106709,0.9940705,0.9943163,0.0023670874,-0.10644062,-2.3283067e-10,-0.9997529,-0.022233076,0.0005027111053466093,-0.013982155847549416,0.0031606887817385854,0.0,0.0,0.0,0.025756836
0.0,0.0,0.0,0.10646693,-0.022106709,0.9940705,0.9943163,0.0023670874,-0.10644062,-2.3283067e-10,-0.9997529,-0.022233076,0.007685316085815352,0.024325070714950575,-0.004021916198730935,0.0,0.0,0.0,0.026733398
0.0,0.0,0.0,0.10646693,-0.022106709,0.9940705,0.9943163,0.0023670874,-0.10644062,-2.3283067e-10,-0.9997529,-0.022233076,0.0699345592498779,-0.016376357507705663,0.10611136016845713,0.0,0.0,0.002772478,0.026245117
0.0,0.0,0.0,0.10646693,-0.022106709,0.9940705,0.9943163,0.0023670874,-0.10644062,-2.3283067e-10,-0.9997529,-0.022233076,-0.06414073371887208,-0.006799550867080673,-0.03275233612060546,0.0,0.0,0.002772478,0.025939941
0.0,0.0,0.0,0.10646693,-0.022106709,0.9940705,0.9943163,0.0023670874,-0.10644062,-2.3283067e-10,-0.9997529,-0.022233076,-0.03301611213684086,-0.042712575769424416,0.027102705383299508,0.0,0.0,0.002772478,0.025756836
0.0,0.0,0.0,0.10646693,-0.022106709,0.9940705,0.9943163,0.0023670874,-0.10644062,-2.3283067e-10,-0.9997529,-0.022233076,0.017262122726440343,0.05784389395713807,-0.04472334442138681,0.0,0.0,0.002772478,0.025817871
0.0,0.0,0.0,0.10646693,-0.022106709,0.9940705,0.9943163,0.0023670874,-0.10644062,-2.3283067e-10,-0.9997529,-0.022233076,-0.023439305496215868,-0.023558962488174434,0.007949092102050415,0.0,0.0,0.002772478,0.025756836
0.0,0.0,0.0,0.10646693,-0.022106709,0.9940705,0.9943163,0.0023670874,-0.10644062,-2.3283067e-10,-0.9997529,-0.022233076,0.002896912765502857,0.005171457433700566,0.07977514190673851,0.0,0.0,0.002772478,0.025878906
0.0,0.0,0.0,0.10646693,-0.022106709,0.9940705,0.9943163,0.0023670874,-0.10644062,-2.3283067e-10,-0.9997529,-0.022233076,-0.013862498855590877,0.021930869054794327,0.03907371368408086,0.0,0.0,0.002772478,0.025756836
0.0,0.0,0.0,0.10646693,-0.022106709,0.9940705,0.9943163,0.0023670874,-0.10644062,-2.3283067e-10,-0.9997529,-0.022233076,-0.02104510383605962,-0.004405349206924425,-0.0064161178588868495,0.0,0.0,0.002772478,0.025878906
0.0,0.0,0.0,0.10646693,-0.022106709,0.9940705,0.9943163,0.0023670874,-0.10644062,-2.3283067e-10,-0.9997529,-0.022233076,-0.018650902175903372,-0.006799550867080673,0.0007664871215808944,0.0,0.0,0.002772478,0.025756836
0.0,0.0,0.0,0.10646693,-0.022106709,0.9940705,0.9943163,0.0023670874,-0.10644062,-2.3283067e-10,-0.9997529,-0.022233076,-0.016256700515747124,0.07220910391807557,-0.04951174774170042,0.0,0.0,0.002772478,0.025756836
0.0,0.0,0.0,0.10646693,-0.022106709,0.9940705,0.9943163,0.0023670874,-0.10644062,-2.3283067e-10,-0.9997529,-0.022233076,-0.018650902175903372,-0.004405349206924425,0.02231430206298768,0.0,0.0,0.002772478,0.025756836
0.0,0.0,0.0,0.10646693,-0.022106709,0.9940705,0.9943163,0.0023670874,-0.10644062,-2.3283067e-10,-0.9997529,-0.022233076,-0.023439305496215868,0.04826708731651308,0.06301573028564356,0.0,0.0,0.002772478,0.025756836
0.0,0.0,0.0,0.10646693,-0.022106709,0.9940705,0.9943163,0.0023670874,-0.10644062,-2.3283067e-10,-0.9997529,-0.022233076,-0.025833507156372115,0.024325070714950575,0.024708503723143593,0.0,0.0,0.002772478,0.025756836
0.0,0.0,0.0,0.10646693,-0.022106709,0.9940705,0.9943163,0.0023670874,-0.10644062,-2.3283067e-10,-0.9997529,-0.022233076,0.036415736007690325,0.024325070714950575,-0.03514653778076138,0.0,0.0,0.002772478,0.025817871
0.0,0.0,0.0,0.10646693,-0.022106709,0.9940705,0.9943163,0.0023670874,-0.10644062,-2.3283067e-10,-0.9997529,-0.022233076,0.002896912765502857,-0.06665459237098692,0.0534389236450199,0.0,0.0,0.002772478,0.025878906
0.0,0.0,0.0,0.10646693,-0.022106709,0.9940705,0.9943163,0.0023670874,-0.10644062,-2.3283067e-10,-0.9997529,-0.022233076,-0.023439305496215868,-0.023558962488174434,0.0534389236450199,0.0,0.0,0.002772478,0.025817871
0.0,0.0,0.0,0.10646693,-0.022106709,0.9940705,0.9943163,0.0023670874,-0.10644062,-2.3283067e-10,-0.9997529,-0.022233076,0.026838929367065334,0.04347868399620056,-0.0064161178588868495,0.0,0.0,0.002772478,0.025817871
0.0,0.0,0.0,0.10646693,-0.022106709,0.9940705,0.9943163,0.0023670874,-0.10644062,-2.3283067e-10,-0.9997529,-0.022233076,-0.009074095535278381,0.024325070714950575,0.03667951202392494,0.0,0.0,0.002772478,0.025756836
0.0,0.0,0.0,0.10646693,-0.022106709,0.9940705,0.9943163,0.0023670874,-0.10644062,-2.3283067e-10,-0.9997529,-0.022233076,-0.05456392707824709,0.036296079015731814,0.04625631866455038,0.0,0.0,0.002772478,0.025817871
0.0,0.0,0.0,0.10646693,-0.022106709,0.9940705,0.9943163,0.0023670874,-0.10644062,-2.3283067e-10,-0.9997529,-0.022233076,-0.023439305496215868,0.0075656590938568136,0.07738094024658082,0.0,0.0,0.002772478,0.025756836
0.0,0.0,0.0,0.10646693,-0.022106709,0.9940705,0.9943163,0.0023670874,-0.10644062,-2.3283067e-10,-0.9997529,-0.022233076,-0.006679893875122134,0.009959860754013061,-0.03993494110107498,0.0,0.0,0.002772478,0.025817871
0.0,0.0,0.0,0.10646693,-0.022106709,0.9940705,0.9943163,0.0023670874,-0.10644062,-2.3283067e-10,-0.9997529,-0.022233076,-0.006679893875122134,-0.016376357507705663,-0.07105956268310543,0.0,0.0,0.002772478,0.026184082
0.0,0.0,0.0,0.10646693,-0.022106709,0.9940705,0.9943163,0.0023670874,-0.10644062,-2.3283067e-10,-0.9997529,-0.022233076,0.026838929367065334,0.005171457433700566,0.05822732696533173,0.0,0.0,0.002772478,0.026855469
0.0,0.0,0.0,0.10646693,-0.022106709,0.9940705,0.9943163,0.0023670874,-0.10644062,-2.3283067e-10,-0.9997529,-0.022233076,-0.02104510383605962,-0.04750097908973694,0.04146791534423855,0.0,0.0,0.002772478,0.02722168
0.0,0.0,0.0,0.10646693,-0.022106709,0.9940705,0.9943163,0.0023670874,-0.10644062,-2.3283067e-10,-0.9997529,-0.022233076,0.02923313102722158,0.036296079015731814,0.012737495422362244,0.0,0.0,0.002772478,0.026916504
0.0,0.0,0.0,0.10646693,-0.022106709,0.9940705,0.9943163,0.0023670874,-0.10644062,-2.3283067e-10,-0.9997529,-0.022233076,-0.016256700515747124,0.03869028067588806,0.0055548904418945,0.0,0.0,0.002772478,0.027526855
0.0,0.0,0.0,0.10646693,-0.022106709,0.9940705,0.9943163,0.0023670874,-0.10644062,-2.3283067e-10,-0.9997529,-0.022233076,-0.004285692214965886,-0.011587954187393168,0.05104472198486221,0.0,0.0,0.002772478,0.028503418
0.0,0.0,0.0,0.10646693,-0.022106709,0.9940705,0.9943163,0.0023670874,-0.10644062,-2.3283067e-10,-0.9997529,-0.022233076,0.036415736007690325,0.014748264074325584,0.09174615020751986,0.0,0.0,0.002772478,0.028442383
0.0,0.0,0.0,0.10646693,-0.022106709,0.9940705,0.9943163,0.0023670874,-0.10644062,-2.3283067e-10,-0.9997529,-0.022233076,-0.035410313796997106,-0.049895180749893187,-0.015992924499512284,0.0,0.0,0.002772478,0.028381348
0.0,0.0,0.0,0.10646693,-0.022106709,0.9940705,0.9943163,0.0023670874,-0.10644062,-2.3283067e-10,-0.9997529,-0.022233076,0.01965632438659659,0.009959860754013061,0.024708503723143593,0.0,0.0,0.002772478,0.028198242
0.0,0.0,0.0,0.10646693,-0.022106709,0.9940705,0.9943163,0.0023670874,-0.10644062,-2.3283067e-10,-0.9997529,-0.022233076,-0.028227708816528363,-0.042712575769424416,0.024708503723143593,0.0,0.0,0.002772478,0.027832031
0.0,0.0,0.0,0.10646693,-0.022106709,0.9940705,0.9943163,0.0023670874,-0.10644062,-2.3283067e-10,-0.9997529,-0.022233076,-0.028227708816528363,-0.021164760828018186,0.0055548904418945,0.0,0.0,0.002772478,0.027770996
0.0,0.0,0.0,0.10646693,-0.022106709,0.9940705,0.9943163,0.0023670874,-0.10644062,-2.3283067e-10,-0.9997529,-0.022233076,0.026838929367065334,-0.006799550867080673,0.03428531036376903,0.0,0.0,0.002772478,0.028015137
0.0,0.0,0.0,0.10646693,-0.022106709,0.9940705,0.9943163,0.0023670874,-0.10644062,-2.3283067e-10,-0.9997529,-0.022233076,-0.02104510383605962,-0.02834736580848693,-0.011204521179200455,0.0,0.0,0.002772478,0.028320312
0.0,0.0,0.0,0.10646693,-0.022106709,0.9940705,0.9943163,0.0023670874,-0.10644062,-2.3283067e-10,-0.9997529,-0.022233076,-0.009074095535278381,-0.04031837410926817,0.024708503723143593,0.0,0.0,0.002772478,0.028381348
0.0,0.0,0.0,0.10646693,-0.022106709,0.9940705,0.9943163,0.0023670874,-0.10644062,-2.3283067e-10,-0.9997529,-0.022233076,0.036415736007690325,0.005171457433700566,0.08935194854736217,0.0,0.0,0.002772478,0.028442383
0.0,0.0,0.0,0.10646693,-0.022106709,0.9940705,0.9943163,0.0023670874,-0.10644062,-2.3283067e-10,-0.9997529,-0.022233076,-0.09765955696105966,-0.002011147546768177,-0.09978998260498173,0.0,0.0,-0.00012849772,0.028198242
0.0,0.0,0.0,0.10646693,-0.022106709,0.9940705,0.9943163,0.0023670874,-0.10644062,-2.3283067e-10,-0.9997529,-0.022233076,0.024444727706909086,0.04826708731651308,-0.08542477264404269,0.0,0.0,-0.00012849772,0.028015137
0.0,0.0,0.0,0.10646693,-0.022106709,0.9940705,0.9943163,0.0023670874,-0.10644062,-2.3283067e-10,-0.9997529,-0.022233076,-0.04977552375793459,-0.025953164148330682,0.0007664871215808944,0.0,0.0,-0.00012849772,0.028137207
0.0,0.0,0.0,0.10646693,-0.022106709,0.9940705,0.9943163,0.0023670874,-0.10644062,-2.3283067e-10,-0.9997529,-0.022233076,0.012473719406127848,-0.023558962488174434,-0.09260737762451221,0.0,0.0,-0.00012849772,0.028076172
0.0,0.0,0.0,0.10646693,-0.022106709,0.9940705,0.9943163,0.0023670874,-0.10644062,-2.3283067e-10,-0.9997529,-0.022233076,0.02205052604675284,0.009959860754013061,0.03907371368408086,0.0,0.0,-0.00012849772,0.027954102
0.0,0.0,0.0,0.10646693,-0.022106709,0.9940705,0.9943163,0.0023670874,-0.10644062,-2.3283067e-10,-0.9997529,-0.022233076,-0.023439305496215868,0.021930869054794327,0.04865052032470629,0.0,0.0,-0.00012849772,0.027893066
0.0,0.0,-0.14366725,0.10655466,-0.021679884,0.9940705,0.9942988,0.0063516116,-0.10644062,0.0040063295,-0.99974483,-0.022233076,-0.04810492248535159,-0.752522643661499,0.0007664871215808944,0.0,-0.020888152,-0.00012849772,0.027893066
0.0,0.0,-0.118753,0.106625885,-0.021326816,0.9940705,0.99427235,0.009645077,-0.10644062,0.0073178476,-0.99972606,-0.022233076,0.015950999355316076,0.4201181630373001,-0.03035813446044955,0.0,-0.009126857,-0.00012849772,0.027893066
0.0,0.0,-0.15059528,0.10671472,-0.020877758,0.9940705,0.99422294,0.013830636,-0.10644062,0.011526385,-0.9996864,-0.022233076,0.029583489418029685,0.07404337379932405,-0.023175529479981805,0.0,-0.009126857,-0.00012849772,0.027954102
0.0,0.0,0.0,0.10671472,-0.020877758,0.9940705,0.99422294,0.013830636,-0.10644062,0.011526385,-0.9996864,-0.022233076,-0.003935333824157783,-0.07439712913036345,0.03907371368408086,0.0,-0.009126857,-0.00012849772,0.027893066
0.0,0.0,0.0,0.10671472,-0.020877758,0.9940705,0.99422294,0.013830636,-0.10644062,0.011526385,-0.9996864,-0.022233076,0.010429876136779703,-0.28269267356395716,0.0294969070434572,0.0,-0.01698145,-0.00012849772,0.028076172
0.0,0.0,-0.058932174,0.10674964,-0.020698473,0.9940705,0.9941982,0.015500679,-0.106440604,0.013205609,-0.99966556,-0.022233075,-1.2276603918075562,0.1491790356874466,0.01752589874267585,-0.03474854,-0.012667431,-0.00012849772,0.028503418
0.040614214,-0.037268776,0.0,0.10778523,-0.01956992,0.9939816,0.9940868,0.015379236,-0.107493855,0.01318303,-0.9996902,-0.021111852,-0.21387816495895384,0.40562679867744444,-0.020047952270507707,-0.04045934,-0.0013247814,-0.00012849772,0.027954102
-0.026001407,0.0,0.0211398,0.10777346,-0.020354362,0.9939671,0.99409574,0.014871024,-0.10748289,0.012593563,-0.99968225,-0.021836884,-0.36940417690277105,0.11042768230438232,0.07344512176513618,-0.050445583,0.001743674,-0.00012849772,0.027893066
-0.029198956,-0.077504605,0.020873338,0.109909885,-0.021227166,0.99371487,0.9938696,0.014380715,-0.10961981,0.011963412,-0.9996713,-0.022677615,-0.6839069979667664,-0.016448472261428815,0.5783083877563477,-0.06911048,0.001743674,0.015840907,0.027893066
-0.042255618,-0.09469144,0.06603873,0.112499386,-0.022606064,0.9933946,0.99360096,0.01267725,-0.11223427,0.010056337,-0.9996641,-0.023887588,-0.3102226908683777,0.11224094388484955,-0.012811946105957261,-0.07732892,0.004856249,0.015840907,0.027954102
-0.09767981,-0.054455604,0.14531131,0.11391007,-0.025771191,0.99315673,0.99347323,0.008958051,-0.11371393,0.005966206,-0.99962777,-0.026623398,-0.7767567270278931,-0.04600571973323819,0.07773522338867167,-0.09843641,0.004856249,0.015840907,0.027893066
-0.13058794,-0.03766847,0.27521178,0.11473661,-0.030256208,0.99293506,0.99339443,0.0017636644,-0.11473595,-0.0017202699,-0.99954057,-0.030258702,-0.5489425436019898,0.02211261403560641,0.6733254287719728,-0.11308357,0.004856249,0.03431959,0.027832031
-0.24116987,-0.3089273,0.092551745,0.123181924,-0.037223488,0.99168575,0.9923735,4.803296e-06,-0.123267174,-0.0045836684,-0.99930704,-0.036940195,-0.9346363958358764,-0.8876767850875853,1.6437056991577137,-0.13833848,-0.019747332,0.0795785,0.027832031
-0.06077476,-0.46360874,-0.19083111,0.1362245,-0.038214933,0.98994064,0.99067795,0.005514715,-0.13611306,0.00025769277,-0.9992544,-0.038609926,-0.5753459457397462,0.07578740477561952,0.3412885925292972,-0.15358388,-0.019747332,0.08858276,0.027954102
0.25338453,-0.31732085,-0.13114351,0.14510845,-0.030707074,0.9889391,0.9894092,0.008143242,-0.14492457,0.0036029639,-0.9994953,-0.031563506,-0.5121539245605469,0.5860746704101563,-1.1348557098388676,-0.16696614,-0.0033906975,0.05655412,0.027893066
0.33971837,0.13313398,-0.04560905,0.14146745,-0.021149874,0.98971695,0.98993045,0.008046049,-0.14132603,0.004974287,-0.999744,-0.022075148,-0.38635370025634774,0.05474004626274109,-1.337595613098145,-0.17679007,-0.0033906975,0.019058859,0.027893066
0.19249782,0.32925037,-0.038414564,0.13239133,-0.015685216,0.9910734,0.99117804,0.008372911,-0.1322728,0.006223448,-0.999842,-0.016655331,-0.6418911684036255,-0.5194525662899017,-0.4461710479736336,-0.19365698,-0.01780585,0.006491317,0.027893066
0.0,0.40852293,-0.26450798,0.12120162,-0.014749674,0.99251837,0.9925322,0.015691094,-0.12097013,0.013789434,-0.99976814,-0.016541306,-0.5184706617355347,0.09532326177358627,-0.4748485275268557,-0.20701419,-0.01780585,-0.006809291,0.027893066
-0.084223464,0.32591957,-0.28609145,0.11231652,-0.016147802,0.9935413,0.993431,0.02387098,-0.11191608,0.02190961,-0.9995847,-0.018722828,-0.8713517258644105,0.08291339538097381,0.031467672729490914,-0.23004782,-0.01780585,-0.006809291,0.027832031
-0.10633984,0.1284709,-0.26863816,0.108891964,-0.01826193,0.9938859,0.9936172,0.03162531,-0.10828143,0.029454524,-0.999333,-0.021589108,-0.4193313312530518,0.25597442326545716,0.01186631164550711,-0.24044853,-0.010669088,-0.006809291,0.027832031
-0.05731075,0.09196553,-0.19203019,0.10644799,-0.019272005,0.9941315,0.99370736,0.037106726,-0.10568323,0.034852237,-0.9991254,-0.023100667,-0.45423938055038454,-0.011027379417419436,0.09603101348876919,-0.25176394,-0.010669088,-0.006809291,0.027832031
0.0,-0.070443355,-0.32312974,0.10857051,-0.018302996,0.99392027,0.993123,0.046060648,-0.107635215,0.043810565,-0.998771,-0.023177952,-0.3257002151489258,-0.3949096951007842,0.7154774047851564,-0.25948006,-0.021615347,0.0129739735,0.027893066
0.083514675,-0.2369824,-0.39840537,0.11530736,-0.014752179,0.9932203,0.9918207,0.056808133,-0.1143011,0.0547368,-0.9982762,-0.021181908,-0.3573256419181824,0.06421930065155029,-0.03292257385253983,-0.26801658,-0.021615347,0.0129739735,0.027832031
0.0,-0.12986448,-0.3801527,0.11903794,-0.013515124,0.99279773,0.9907469,0.067273654,-0.11787623,0.06519602,-0.99764305,-0.021398181,0.3421349665641784,0.6358067264914512,-1.2025957077026375,-0.2571642,-0.0039875223,-0.020422883,0.027770996
0.10416551,0.19428712,-0.22174075,0.113751546,-0.009925399,0.99345964,0.99093705,0.07304179,-0.11273296,0.071445145,-0.9972795,-0.018144056,0.3713734152793884,0.44818034769296644,-0.6430239013671883,-0.24555817,0.008367645,-0.03819059,0.027770996
0.16305372,0.25877103,-0.25531504,0.106645055,-0.0046318625,0.99428636,0.9911822,0.07958821,-0.10594135,0.07864276,-0.9968171,-0.0130787045,0.08522471637725826,-0.33289634895324705,0.38205824279785183,-0.24190907,-0.0009422022,-0.027520841,0.027832031
0.06619461,0.28448465,-0.34897658,0.09878295,-0.0017953466,0.99510735,0.99117154,0.089048244,-0.098231584,0.0884362,-0.99602574,-0.010575944,0.7055283417701721,-0.12884357241541147,-0.17298597869873156,-0.22105458,-0.004562615,-0.03228564,0.027893066
0.024093539,0.2706286,-0.32925838,0.091310546,-0.00026013283,0.9958224,0.99102664,0.09804775,-0.09084519,0.09761451,-0.99518174,-0.009210593,0.5971745644569397,0.5815424509245902,0.12518011016845598,-0.20338923,0.011480327,-0.028766895,0.027770996
0.05153918,0.28435144,-0.14593218,0.083268285,0.0015585922,0.99652594,0.99131376,0.102025874,-0.08299234,0.10180078,-0.9947806,-0.006950467,0.7137875833511351,0.5617526889070869,-0.2684846206665048,-0.18213281,0.027235031,-0.03630567,0.028381348
0.1220185,0.23758727,-0.062262952,0.076656684,0.0050900443,0.99704456,0.9916647,0.10347594,-0.07677132,0.103560895,-0.994619,-0.0028845067,0.691707565498352,-0.2861926915824413,0.3545189849853507,-0.16195935,0.019107731,-0.026387105,0.027893066
0.13907209,0.15178636,-0.12394902,0.07241933,0.009207003,0.9973318,0.9916187,0.106607065,-0.072988644,0.1069946,-0.9942586,0.0014094225,0.8655221141815184,-0.17410422559976577,-0.4235712799072271,-0.13711725,0.014142813,-0.038087282,0.027832031
-0.09488195,-0.10495025,-0.20974995,0.07527865,0.0070094634,0.9971379,0.9907638,0.112576544,-0.07558881,0.11278416,-0.99361837,-0.0015298887,0.5019610529899596,-0.20386233358979225,1.6490124679565419,-0.12249954,0.008391273,0.0075664986,0.027770996
-0.028266337,-0.41537905,-0.29168716,0.0867452,0.0068830377,0.99620676,0.9888774,0.12067649,-0.08694079,0.12081714,-0.9926681,-0.0036616225,0.6324366104125976,-0.5236425616145134,-0.6584996444702149,-0.10430971,-0.006199719,-0.0108097885,0.027832031
-0.1176645,-0.39579406,-0.27116954,0.09764795,0.0043235756,0.99521166,0.9869264,0.12841757,-0.09739292,0.12822372,-0.9917107,-0.0082726525,1.1650001170158386,1.5109921988189219,3.4773113388061514,-0.07153464,0.035535395,0.085227214,0.027770996
-0.31591257,0.0,-0.05546816,0.09764793,-0.0042950967,0.9952118,0.98672587,0.13079758,-0.096250825,0.12975788,-0.9913998,-0.017010186,2.0436723051071164,0.8877629627525806,-0.7532439483642586,-0.014393789,0.059947513,0.06379092,0.027893066
-0.15416986,0.0,-0.068791285,0.09766006,-0.008378407,0.9951846,0.98647314,0.1330983,-0.09568463,0.13165571,-0.99106747,-0.021263454,0.9374510619163512,-0.4767705130696296,0.3076115005493154,0.011702507,0.04639657,0.07188661,0.027832031
-0.047318406,0.0,-0.09676985,0.09768403,-0.009425967,0.99517286,0.9861109,0.13588059,-0.09550752,0.13432443,-0.9906804,-0.022568407,0.3339144753456116,-0.1401243131995201,0.10180743255615177,0.020954661,0.04223608,0.07188661,0.027832031
-0.08062622,0.0,-0.05640078,0.09770046,-0.011505752,0.9951494,0.9858963,0.13764235,-0.095200635,0.13587935,-0.9904152,-0.024791194,0.6282657981872557,-0.11099864854812622,-0.03686266784668035,0.038311988,0.038902964,0.07188661,0.027832031
0.0,0.022818513,0.0,0.09706844,-0.011505752,0.99521124,0.98595655,0.13764235,-0.09457449,0.13589507,-0.9904152,-0.024704894,-0.07041634845733646,-0.2594391514778137,0.16852845916747938,0.038311988,0.031475775,0.07608591,0.027832031
0.0,0.0,0.0,0.09706844,-0.011505752,0.99521124,0.98595655,0.13764235,-0.09457449,0.13589507,-0.9904152,-0.024704894,0.10196617107391348,-0.11818125352859496,-0.05652649688720679,0.038311988,0.02798993,0.07608591,0.027893066
0.0,0.0,0.0,0.09706844,-0.011505752,0.99521124,0.98595655,0.13764235,-0.09457449,0.13589507,-0.9904152,-0.024704894,0.08041835613250725,-0.08945083360671996,-0.10201632843017627,0.038311988,0.02798993,0.07277508,0.027893066
0.0,0.0,-0.054668773,0.0970858,-0.011358369,0.99521124,0.98574644,0.13913909,-0.09457449,0.13739857,-0.99020773,-0.024704894,0.03717949628829953,-0.4952865732550621,-0.12356414337158306,0.038311988,0.014129761,0.06889981,0.027770996
0.0,-0.021547489,0.0,0.09768262,-0.011358369,0.99515283,0.9856895,0.13913909,-0.09516563,0.13738373,-0.99020773,-0.024787288,0.12802481508255004,-0.059541871106624594,-0.3361664855957036,0.041711356,0.014129761,0.059147876,0.027832031
0.0,0.0,0.0,0.09768262,-0.011358369,0.99515283,0.9856895,0.13913909,-0.09516563,0.13738373,-0.99020773,-0.024787288,0.04183355531692501,-0.030811451184749594,-0.01773766479492167,0.041711356,0.014129761,0.059147876,0.027832031
0.0,0.0,0.0,0.09768262,-0.011358369,0.99515283,0.9856895,0.13913909,-0.09516563,0.13738373,-0.99020773,-0.024787288,0.04901616029739375,-0.1409447275519371,-0.0033724548339844063,0.041711356,0.010117324,0.059147876,0.027954102
0.0,0.0,0.0,0.09768262,-0.011358369,0.99515283,0.9856895,0.13913909,-0.09516563,0.13738373,-0.99020773,-0.024787288,0.034650950336456265,-0.05235926612615585,-0.027314471435547105,0.041711356,0.010117324,0.059147876,0.027954102
0.0,0.0,0.0,0.09768262,-0.011358369,0.99515283,0.9856895,0.13913909,-0.09516563,0.13738373,-0.99020773,-0.024787288,-0.00126207456588745,-0.0834838877081871,-0.010555059814453926,0.041711356,0.010117324,0.059147876,0.027893066
0.0,0.0,0.0,0.09768262,-0.011358369,0.99515283,0.9856895,0.13913909,-0.09516563,0.13738373,-0.99020773,-0.024787288,0.015497337055206284,-0.11939691261053084,-0.1230825378417979,0.041711356,0.006758594,0.055361528,0.027832031
0.0,0.0,0.0,0.09768262,-0.011358369,0.99515283,0.9856895,0.13913909,-0.09516563,0.13738373,-0.99020773,-0.024787288,0.044227756977081256,-0.06911867774724959,0.15464485473632728,0.041711356,0.006758594,0.059285183,0.027832031
0.0,0.0,0.0,0.09768262,-0.011358369,0.99515283,0.9856895,0.13913909,-0.09516563,0.13738373,-0.99020773,-0.024787288,0.05859296693801874,-0.06672447608709334,0.06127098999023417,0.041711356,0.006758594,0.059285183,0.027893066
0.0,0.0,0.0,0.09768262,-0.011358369,0.99515283,0.9856895,0.13913909,-0.09516563,0.13738373,-0.99020773,-0.024787288,0.06577557191848749,-0.030811451184749594,0.001415948486327423,0.041711356,0.006758594,0.059285183,0.027954102
0.0,0.0,0.0,0.09768262,-0.011358369,0.99515283,0.9856895,0.13913909,-0.09516563,0.13738373,-0.99020773,-0.024787288,0.07056397523879998,-0.06193607276678084,0.008598553466796943,0.041711356,0.006758594,0.059285183,0.028015137
0.0,0.0,0.0,0.09768262,-0.011358369,0.99515283,0.9856895,0.13913909,-0.09516563,0.13738373,-0.99020773,-0.024787288,0.02028574037551878,-0.10263750098943708,0.0708477966308596,0.041711356,0.003844227,0.059285183,0.028503418
0.0,0.0,0.0,0.09768262,-0.011358369,0.99515283,0.9856895,0.13913909,-0.09516563,0.13738373,-0.99020773,-0.024787288,0.02986254701614377,-0.040388257825374585,-0.03689127807617254,0.041711356,0.003844227,0.059285183,0.028015137
0.0,0.0,0.0,0.09768262,-0.011358369,0.99515283,0.9856895,0.13913909,-0.09516563,0.13738373,-0.99020773,-0.024787288,0.044227756977081256,-0.040388257825374585,0.006204351806641029,0.041711356,0.003844227,0.059285183,0.027954102
0.0,0.0,0.0,0.09768262,-0.011358369,0.99515283,0.9856895,0.13913909,-0.09516563,0.13738373,-0.99020773,-0.024787288,0.0035263287544250455,-0.10024329932928083,-0.046468084716797975,0.041711356,0.003844227,0.059285183,0.027954102
0.0,0.0,0.0,0.09768262,-0.011358369,0.99515283,0.9856895,0.13913909,-0.09516563,0.13738373,-0.99020773,-0.024787288,0.05380456361770625,-0.08108968604803085,-0.010555059814453926,0.041711356,0.003844227,0.059285183,0.027893066
0.0,0.0,0.0,0.09768262,-0.011358369,0.99515283,0.9856895,0.13913909,-0.09516563,0.13738373,-0.99020773,-0.024787288,0.05380456361770625,-0.0834838877081871,-0.015343463134765756,0.041711356,0.003844227,0.059285183,0.028198242
0.0,0.0,0.0,0.09768262,-0.011358369,0.99515283,0.9856895,0.13913909,-0.09516563,0.13738373,-0.99020773,-0.024787288,0.06816977357864373,-0.1170027109503746,0.03732897338867147,0.041711356,0.00057837664,0.059285183,0.028564453
0.0,0.0,0.0,0.09768262,-0.011358369,0.99515283,0.9856895,0.13913909,-0.09516563,0.13738373,-0.99020773,-0.024787288,0.07295817689895623,-0.06911867774724959,-0.015343463134765756,0.041711356,0.00057837664,0.059285183,0.028503418
0.0,0.0,0.0,0.09768262,-0.011358369,0.99515283,0.9856895,0.13913909,-0.09516563,0.13738373,-0.99020773,-0.024787288,0.04901616029739375,-0.12897371925115583,0.039723175048827386,0.041711356,-0.0029789864,0.059285183,0.028381348
0.0,0.0,0.0,0.09768262,-0.011358369,0.99515283,0.9856895,0.13913909,-0.09516563,0.13738373,-0.99020773,-0.024787288,0.025074143695831275,-0.0547534677863121,0.015781158447264687,0.041711356,-0.0029789864,0.059285183,0.028381348
0.0,0.0,0.0,0.09768262,-0.011358369,0.99515283,0.9856895,0.13913909,-0.09516563,0.13738373,-0.99020773,-0.024787288,0.03225674867630002,-0.018840442883968342,0.08042460327148326,0.041711356,-0.0029789864,0.059285183,0.027893066
0.0,0.0,0.0,0.09768262,-0.011358369,0.99515283,0.9856895,0.13913909,-0.09516563,0.13738373,-0.99020773,-0.024787288,0.056198765277862495,-0.0834838877081871,-0.06562169799804707,0.041711356,-0.0029789864,0.059285183,0.027954102
0.0,0.0,0.0,0.09768262,-0.011358369,0.99515283,0.9856895,0.13913909,-0.09516563,0.13738373,-0.99020773,-0.024787288,0.07056397523879998,-0.006869434583187103,0.03254057006835964,0.041711356,-0.0029789864,0.059285183,0.027893066
0.0,0.0,0.0,0.09768262,-0.011358369,0.99515283,0.9856895,0.13913909,-0.09516563,0.13738373,-0.99020773,-0.024787288,0.07295817689895623,-0.09545489600896834,-0.05604489135742163,0.041711356,-0.0029789864,0.059285183,0.027832031
0.0,0.0,0.0,0.09768262,-0.011358369,0.99515283,0.9856895,0.13913909,-0.09516563,0.13738373,-0.99020773,-0.024787288,-0.04435770444870002,-0.07630128272771836,-0.027314471435547105,0.041711356,-0.0029789864,0.059285183,0.027832031
0.0,0.0,0.0,0.09768262,-0.011358369,0.99515283,0.9856895,0.13913909,-0.09516563,0.13738373,-0.99020773,-0.024787288,-0.020415687847137542,-0.05714766944646835,-0.022526068115235276,0.041711356,-0.0029789864,0.059285183,0.027832031
0.0,0.0,0.0,0.09768262,-0.011358369,0.99515283,0.9856895,0.13913909,-0.09516563,0.13738373,-0.99020773,-0.024787288,0.025074143695831275,-0.05235926612615585,-0.06083329467773524,0.041711356,-0.0029789864,0.059285183,0.027832031
0.0,0.0,0.0,0.09768262,-0.011358369,0.99515283,0.9856895,0.13913909,-0.09516563,0.13738373,-0.99020773,-0.024787288,0.05380456361770625,-0.04278245948553083,0.051694183349608736,0.041711356,-0.0029789864,0.059285183,0.027893066
0.0,0.0,0.0,0.09768262,-0.011358369,0.99515283,0.9856895,0.13913909,-0.09516563,0.13738373,-0.99020773,-0.024787288,0.1064770001411437,-0.09545489600896834,0.0181753601074206,0.041711356,-0.0029789864,0.059285183,0.027832031
0.0,0.0,0.0,0.09768262,-0.011358369,0.99515283,0.9856895,0.13913909,-0.09516563,0.13738373,-0.99020773,-0.024787288,0.08014078187942497,-0.06672447608709334,-0.02013186645507936,0.041711356,-0.0029789864,0.059285183,0.027893066
0.0,0.0,0.0,0.09768262,-0.011358369,0.99515283,0.9856895,0.13913909,-0.09516563,0.13738373,-0.99020773,-0.024787288,0.015497337055206284,-0.13376212257146833,0.03493477172851556,0.041711356,-0.0065077674,0.059285183,0.027893066
0.0,0.0,0.0,0.09768262,-0.011358369,0.99515283,0.9856895,0.13913909,-0.09516563,0.13738373,-0.99020773,-0.024787288,-0.0132330828666688,-0.1170027109503746,0.006204351806641029,0.041711356,-0.009547105,0.059285183,0.027832031
0.0,0.0,0.0,0.09768262,-0.011358369,0.99515283,0.9856895,0.13913909,-0.09516563,0.13738373,-0.99020773,-0.024787288,0.04901616029739375,-0.06193607276678084,0.027752166748046037,0.041711356,-0.009547105,0.059285183,0.027832031
0.0,0.0,0.0,0.09768262,-0.011358369,0.99515283,0.9856895,0.13913909,-0.09516563,0.13738373,-0.99020773,-0.024787288,0.03225674867630002,-0.07390708106756208,0.013386956787108772,0.041711356,-0.009547105,0.059285183,0.028442383
0.0,0.0,0.0,0.09768262,-0.011358369,0.99515283,0.9856895,0.13913909,-0.09516563,0.13738373,-0.99020773,-0.024787288,0.06577557191848749,-0.049965064465999603,-0.046468084716797975,0.041711356,-0.009547105,0.059285183,0.027954102
0.0,0.0,0.0,0.09768262,-0.011358369,0.99515283,0.9856895,0.13913909,-0.09516563,0.13738373,-0.99020773,-0.024787288,0.13999582338333127,-0.10503170264959333,0.025357965087890122,0.045282174,-0.009547105,0.059285183,0.027893066
0.0,0.0,0.0,0.09768262,-0.011358369,0.99515283,0.9856895,0.13913909,-0.09516563,0.13738373,-0.99020773,-0.024787288,0.0035263287544250455,-0.05714766944646835,-0.03689127807617254,0.045282174,-0.009547105,0.059285183,0.027832031
0.0,0.0,0.0,0.09768262,-0.011358369,0.99515283,0.9856895,0.13913909,-0.09516563,0.13738373,-0.99020773,-0.024787288,0.03704515199661251,-0.10024329932928083,0.001415948486327423,0.045282174,-0.009547105,0.059285183,0.028015137
0.0,0.0,0.0,0.09768262,-0.011358369,0.99515283,0.9856895,0.13913909,-0.09516563,0.13738373,-0.99020773,-0.024787288,0.044227756977081256,-0.0786954843878746,-0.010555059814453926,0.045282174,-0.009547105,0.059285183,0.028015137
0.0,0.0,0.0,0.09768262,-0.011358369,0.99515283,0.9856895,0.13913909,-0.09516563,0.13738373,-0.99020773,-0.024787288,0.08253498353958122,-0.1074259043097496,0.06845359497070191,0.045282174,-0.009547105,0.059285183,0.028015137
0.0,0.0,0.0,0.09768262,-0.011358369,0.99515283,0.9856895,0.13913909,-0.09516563,0.13738373,-0.99020773,-0.024787288,0.11126540346145619,-0.10503170264959333,-0.046468084716797975,0.045282174,-0.009547105,0.059285183,0.027893066
0.0,0.0,0.0,0.09768262,-0.011358369,0.99515283,0.9856895,0.13913909,-0.09516563,0.13738373,-0.99020773,-0.024787288,0.04183355531692501,-0.07630128272771836,-0.0033724548339844063,0.045282174,-0.009547105,0.059285183,0.027832031
0.0,0.0,0.0,0.09768262,-0.011358369,0.99515283,0.9856895,0.13913909,-0.09516563,0.13738373,-0.99020773,-0.024787288,0.056198765277862495,-0.02362884620428085,-0.03210287475586071,0.045282174,-0.009547105,0.059285183,0.027832031
0.0,0.0,0.0,0.09768262,-0.011358369,0.99515283,0.9856895,0.13913909,-0.09516563,0.13738373,-0.99020773,-0.024787288,0.07535237855911248,-0.0882722910284996,0.0708477966308596,0.045282174,-0.009547105,0.059285183,0.027954102
0.0,0.0,0.0,0.09768262,-0.011358369,0.99515283,0.9856895,0.13913909,-0.09516563,0.13738373,-0.99020773,-0.024787288,0.0969001935005187,-0.1170027109503746,-0.07759270629882842,0.045282174,-0.012471614,0.059285183,0.027954102
0.0,0.0,0.0,0.09768262,-0.011358369,0.99515283,0.9856895,0.13913909,-0.09516563,0.13738373,-0.99020773,-0.024787288,0.07535237855911248,-0.0786954843878746,-0.010555059814453926,0.045282174,-0.012471614,0.059285183,0.027893066
0.0,0.0,0.0,0.09768262,-0.011358369,0.99515283,0.9856895,0.13913909,-0.09516563,0.13738373,-0.99020773,-0.024787288,0.11365960512161255,-0.13376212257146833,0.03493477172851556,0.045282174,-0.01583108,0.059285183,0.027893066
0.0,0.0,0.0,0.09768262,-0.011358369,0.99515283,0.9856895,0.13913909,-0.09516563,0.13738373,-0.99020773,-0.024787288,0.08971758852004996,-0.05235926612615585,-0.008160858154298012,0.045282174,-0.01583108,0.059285183,0.027893066
0.0,0.0,0.0,0.09768262,-0.011358369,0.99515283,0.9856895,0.13913909,-0.09516563,0.13738373,-0.99020773,-0.024787288,0.13520742006301878,-0.08587808936834335,0.05408838500976465,0.04860201,-0.01583108,0.059285183,0.027832031
0.0,0.0,0.0,0.09768262,-0.011358369,0.99515283,0.9856895,0.13913909,-0.09516563,0.13738373,-0.99020773,-0.024787288,0.12323641176223754,-0.08108968604803085,0.025357965087890122,0.051580254,-0.01583108,0.059285183,0.027893066
0.0,0.0,0.0,0.09768262,-0.011358369,0.99515283,0.9856895,0.13913909,-0.09516563,0.13738373,-0.99020773,-0.024787288,0.08253498353958122,-0.06672447608709334,-0.02492026977539119,0.051580254,-0.01583108,0.059285183,0.027954102
0.0,0.0,0.0,0.09768262,-0.011358369,0.99515283,0.9856895,0.13913909,-0.09516563,0.13738373,-0.99020773,-0.024787288,0.06816977357864373,-0.0786954843878746,-0.015343463134765756,0.051580254,-0.01583108,0.059285183,0.028015137
0.0,0.0,0.0,0.09768262,-0.011358369,0.99515283,0.9856895,0.13913909,-0.09516563,0.13738373,-0.99020773,-0.024787288,0.04901616029739375,-0.10263750098943708,0.08521300659179687,0.051580254,-0.01583108,0.059285183,0.027954102
0.0,0.0,0.0,0.09768262,-0.011358369,0.99515283,0.9856895,0.13913909,-0.09516563,0.13738373,-0.99020773,-0.024787288,0.005920530414581293,-0.09545489600896834,-0.027314471435547105,0.051580254,-0.01583108,0.059285183,0.027832031
0.0,0.0,0.0,0.09768262,-0.011358369,0.99515283,0.9856895,0.13913909,-0.09516563,0.13738373,-0.99020773,-0.024787288,0.08732338685989371,0.026649388659000406,0.051694183349608736,0.051580254,-0.01583108,0.059285183,0.027832031
0.0,0.0,0.0,0.09768262,-0.011358369,0.99515283,0.9856895,0.13913909,-0.09516563,0.13738373,-0.99020773,-0.024787288,0.02028574037551878,-0.09306069434881209,0.04451157836914099,0.051580254,-0.01583108,0.059285183,0.027832031
0.0,0.0,0.0,0.09768262,-0.011358369,0.99515283,0.9856895,0.13913909,-0.09516563,0.13738373,-0.99020773,-0.024787288,-0.0036562762260436976,-0.10982010596990585,-0.051256488037109804,0.051580254,-0.01583108,0.059285183,0.028442383
0.0,0.0,0.0,0.09768262,-0.011358369,0.99515283,0.9856895,0.13913909,-0.09516563,0.13738373,-0.99020773,-0.024787288,0.1064770001411437,-0.11460850929021835,-0.02970867309570302,0.051580254,-0.01583108,0.059285183,0.028015137
0.0,0.0,0.0,0.09768262,-0.011358369,0.99515283,0.9856895,0.13913909,-0.09516563,0.13738373,-0.99020773,-0.024787288,0.03943935365676876,-0.06433027442693709,0.0421173767089833,0.051580254,-0.01583108,0.059285183,0.027893066
0.0,0.0,0.0,0.09768262,-0.011358369,0.99515283,0.9856895,0.13913909,-0.09516563,0.13738373,-0.99020773,-0.024787288,0.06098716859817499,-0.13136792091131208,-0.02013186645507936,0.051580254,-0.018997857,0.059285183,0.027832031
0.0,0.0,0.0,0.09768262,-0.011358369,0.99515283,0.9856895,0.13913909,-0.09516563,0.13738373,-0.99020773,-0.024787288,0.1064770001411437,-0.0834838877081871,-0.046468084716797975,0.051580254,-0.018997857,0.059285183,0.027893066
0.0,0.0,0.0,0.09768262,-0.011358369,0.99515283,0.9856895,0.13913909,-0.09516563,0.13738373,-0.99020773,-0.024787288,0.05141036195755,-0.047570862805843356,0.0181753601074206,0.051580254,-0.018997857,0.059285183,0.027832031
0.0,0.0,0.0,0.09768262,-0.011358369,0.99515283,0.9856895,0.13913909,-0.09516563,0.13738373,-0.99020773,-0.024787288,0.010708933734893789,-0.0547534677863121,0.020569561767578293,0.051580254,-0.018997857,0.059285183,0.027832031
0.0,0.0,0.0,0.09768262,-0.011358369,0.99515283,0.9856895,0.13913909,-0.09516563,0.13738373,-0.99020773,-0.024787288,0.02986254701614377,-0.08587808936834335,-0.04167968139648437,0.051580254,-0.018997857,0.059285183,0.027832031
0.0,0.0,0.0,0.09768262,-0.011358369,0.99515283,0.9856895,0.13913909,-0.09516563,0.13738373,-0.99020773,-0.024787288,0.07056397523879998,-0.0882722910284996,0.07324199829101552,0.051580254,-0.018997857,0.059285183,0.027832031
0.0,0.0,0.0,0.09768262,-0.011358369,0.99515283,0.9856895,0.13913909,-0.09516563,0.13738373,-0.99020773,-0.024787288,0.08253498353958122,-0.08587808936834335,-0.05365068969726572,0.051580254,-0.018997857,0.059285183,0.027770996
0.0,0.0,0.0,0.09768262,-0.011358369,0.99515283,0.9856895,0.13913909,-0.09516563,0.13738373,-0.99020773,-0.024787288,0.06816977357864373,-0.12897371925115583,0.025357965087890122,0.051580254,-0.022029243,0.059285183,0.027770996
0.0,0.0,0.0,0.09768262,-0.011358369,0.99515283,0.9856895,0.13913909,-0.09516563,0.13738373,-0.99020773,-0.024787288,0.05380456361770625,-0.08587808936834335,-0.022526068115235276,0.051580254,-0.022029243,0.059285183,0.027770996
0.0,0.0,0.0,0.09768262,-0.011358369,0.99515283,0.9856895,0.13913909,-0.09516563,0.13738373,-0.99020773,-0.024787288,0.00831473207473754,-0.028417249524593347,-0.07041010131836067,0.051580254,-0.022029243,0.059285183,0.027832031
0.0,0.0,0.0,0.09768262,-0.011358369,0.99515283,0.9856895,0.13913909,-0.09516563,0.13738373,-0.99020773,-0.024787288,0.0035263287544250455,-0.13855052589178085,-0.044073883056640284,0.051580254,-0.025307018,0.059285183,0.027832031
0.0,0.0,0.0,0.09768262,-0.011358369,0.99515283,0.9856895,0.13913909,-0.09516563,0.13738373,-0.99020773,-0.024787288,0.010708933734893789,-0.07390708106756208,0.020569561767578293,0.051580254,-0.025307018,0.059285183,0.027770996
0.0,0.0,0.0,0.09768262,-0.011358369,0.99515283,0.9856895,0.13913909,-0.09516563,0.13738373,-0.99020773,-0.024787288,0.010708933734893789,-0.03559985450506209,-0.008160858154298012,0.051580254,-0.025307018,0.059285183,0.027832031
0.0,0.0,0.0,0.09768262,-0.011358369,0.99515283,0.9856895,0.13913909,-0.09516563,0.13738373,-0.99020773,-0.024787288,0.07535237855911248,-0.10024329932928083,0.03732897338867147,0.051580254,-0.025307018,0.059285183,0.027832031
0.0,0.0,0.0,0.09768262,-0.011358369,0.99515283,0.9856895,0.13913909,-0.09516563,0.13738373,-0.99020773,-0.024787288,0.08971758852004996,-0.09784909766912459,0.022963763427734207,0.051580254,-0.025307018,0.059285183,0.027770996
0.0,0.0,0.0,0.09768262,-0.011358369,0.99515283,0.9856895,0.13913909,-0.09516563,0.13738373,-0.99020773,-0.024787288,0.05859296693801874,-0.03320565284490584,-0.04167968139648437,0.051580254,-0.025307018,0.059285183,0.027770996
0.0,0.0,0.0,0.09768262,-0.011358369,0.99515283,0.9856895,0.13913909,-0.09516563,0.13738373,-0.99020773,-0.024787288,0.02986254701614377,-0.0834838877081871,0.03732897338867147,0.051580254,-0.025307018,0.059285183,0.027832031
0.0,0.0,0.0,0.09768262,-0.011358369,0.99515283,0.9856895,0.13913909,-0.09516563,0.13738373,-0.99020773,-0.024787288,0.1064770001411437,-0.10503170264959333,0.008598553466796943,0.051580254,-0.025307018,0.059285183,0.027954102
0.0,0.0,0.0,0.09768262,-0.011358369,0.99515283,0.9856895,0.13913909,-0.09516563,0.13738373,-0.99020773,-0.024787288,0.06338137025833124,-0.09545489600896834,0.022963763427734207,0.051580254,-0.025307018,0.059285183,0.027893066
0.0,0.0,0.0,0.09768262,-0.011358369,0.99515283,0.9856895,0.13913909,-0.09516563,0.13738373,-0.99020773,-0.024787288,0.10408279848098745,-0.06193607276678084,-0.03210287475586071,0.051580254,-0.025307018,0.059285183,0.027832031
0.0,0.0,0.0,0.09768262,-0.011358369,0.99515283,0.9856895,0.13913909,-0.09516563,0.13738373,-0.99020773,-0.024787288,0.06098716859817499,-0.09784909766912459,0.046905780029296906,0.051580254,-0.025307018,0.059285183,0.027893066
0.0,0.0,0.0,0.09768262,-0.011358369,0.99515283,0.9856895,0.13913909,-0.09516563,0.13738373,-0.99020773,-0.024787288,0.015497337055206284,-0.040388257825374585,0.013386956787108772,0.051580254,-0.025307018,0.059285183,0.028564453
0.0,0.0,0.0,0.09768262,-0.011358369,0.99515283,0.9856895,0.13913909,-0.09516563,0.13738373,-0.99020773,-0.024787288,0.022679942035675027,-0.06911867774724959,0.022963763427734207,0.051580254,-0.025307018,0.059285183,0.027893066
0.0,0.0,0.0,0.09768262,-0.011358369,0.99515283,0.9856895,0.13913909,-0.09516563,0.13738373,-0.99020773,-0.024787288,0.022679942035675027,-0.0882722910284996,0.046905780029296906,0.051580254,-0.025307018,0.059285183,0.027832031
0.0,0.0,0.0,0.09768262,-0.011358369,0.99515283,0.9856895,0.13913909,-0.09516563,0.13738373,-0.99020773,-0.024787288,0.05380456361770625,-0.07390708106756208,-0.01773766479492167,0.051580254,-0.025307018,0.059285183,0.028015137
0.0,0.0,0.0,0.09768262,-0.011358369,0.99515283,0.9856895,0.13913909,-0.09516563,0.13738373,-0.99020773,-0.024787288,0.025074143695831275,-0.059541871106624594,-0.03210287475586071,0.051580254,-0.025307018,0.059285183,0.027893066
0.0,0.0,0.0,0.09768262,-0.011358369,0.99515283,0.9856895,0.13913909,-0.09516563,0.13738373,-0.99020773,-0.024787288,0.06338137025833124,-0.09784909766912459,0.0708477966308596,0.051580254,-0.025307018,0.059285183,0.027832031
0.0,0.0,0.0,0.09768262,-0.011358369,0.99515283,0.9856895,0.13913909,-0.09516563,0.13738373,-0.99020773,-0.024787288,0.1519668316841125,-0.11460850929021835,0.008598553466796943,0.05518587,-0.025307018,0.059285183,0.027893066
0.0,0.0,0.0,0.09768262,-0.011358369,0.99515283,0.9856895,0.13913909,-0.09516563,0.13738373,-0.99020773,-0.024787288,0.1208422101020813,-0.07390708106756208,-0.05604489135742163,0.05518587,-0.025307018,0.059285183,0.027893066
0.0,0.0,0.0,0.09768262,-0.011358369,0.99515283,0.9856895,0.13913909,-0.09516563,0.13738373,-0.99020773,-0.024787288,0.027468345355987522,-0.049965064465999603,-0.027314471435547105,0.05518587,-0.025307018,0.059285183,0.027893066
0.0,0.0,-0.023092972,0.0976899,-0.011295584,0.99515283,0.9855999,0.13977258,-0.09516563,0.13802013,-0.9901192,-0.024787288,0.07289815502166741,-0.04569452865123749,-0.06322749633789115,0.05518587,-0.025307018,0.059285183,0.027832031
0.0,0.0,-0.05546816,0.09770726,-0.011144427,0.99515283,0.98538244,0.14129731,-0.09516563,0.13955185,-0.98990446,-0.024787288,0.1661288494110107,0.6497713668465614,-0.05604489135742163,0.059145395,-0.006553627,0.059285183,0.027893066
0.0,0.0,-0.020961272,0.09771377,-0.011087173,0.99515283,0.98529947,0.14187467,-0.09516563,0.14013188,-0.98982257,-0.02478729,0.07270122127532952,-0.12163381532430648,0.010992755126952858,0.059145395,-0.006553627,0.059285183,0.027954102
0.0,-0.055254992,-0.099567704,0.09928125,-0.010813021,0.9950007,0.98475266,0.14461634,-0.096687116,0.14284788,-0.98942876,-0.025005836,0.5505835392951965,0.1322844812989235,0.20138972167968738,0.07378034,-0.0022329453,0.064632416,0.027954102
0.0,-0.028342282,-0.0573334,0.10008499,-0.010653608,0.9949219,0.98444337,0.14619091,-0.09746549,0.14441018,-0.98919904,-0.025119383,0.5248004590034485,-0.35984174494743343,0.1254247207641601,0.087594755,-0.011601528,0.067833,0.027893066
0.0,-0.04326418,-0.3443135,0.10138326,-0.0096861385,0.9948003,0.98287565,0.15563816,-0.09865257,0.15387332,-0.9877667,-0.025299367,0.45184270496368395,-0.03742187509536743,0.32275252227783113,0.09931525,-0.011601528,0.076494135,0.027893066
-0.029865112,-0.10534994,-0.37655547,0.10440656,-0.009433965,0.99448997,0.98089236,0.1660348,-0.101403974,0.1641633,-0.9860748,-0.02658882,1.0493981625556945,-0.6188986703395843,0.3755904190063468,0.12756146,-0.028111164,0.08657841,0.027893066
-0.1240596,-0.038068164,-0.09463815,0.1054987,-0.012618778,0.9943394,0.98033863,0.1689944,-0.10186859,0.16675234,-0.9855363,-0.030199358,1.3636070386886594,0.4967323197484016,0.06558588714599622,0.16462861,-0.013480053,0.08657841,0.028076172
-0.024136169,-0.11107888,0.12466048,0.10855983,-0.013669363,0.99399596,0.9806024,0.16562545,-0.10481938,0.16319823,-0.98609406,-0.03138448,0.8499408360481262,0.09120095696449279,0.17615832824706956,0.18720974,-0.010243919,0.09110946,0.028137207
0.38195267,-0.21113554,0.08455787,0.114417754,-0.0032998994,0.9934273,0.98034835,0.16214065,-0.112372816,0.16070414,-0.9867622,-0.021786816,2.2860280753135678,0.9896875693976879,1.4928710083007815,0.2496115,0.018007435,0.13230175,0.028015137
0.39287764,-0.14958271,-0.0637285,0.11857581,0.007839839,0.9929141,0.97957516,0.16262099,-0.11826688,0.16239585,-0.98665744,-0.011603199,0.6643755640029907,-0.18676949044466018,0.6447685775756824,0.26649758,0.01332372,0.14964716,0.028015137
0.2873585,-0.20420751,0.073099986,0.12426561,0.015564686,0.99212694,0.97920966,0.1596419,-0.1251522,0.16033298,-0.98705226,-0.0045969053,1.3261282270431516,-0.21457318260669708,-0.3926107315063483,0.30166885,0.007900235,0.13801424,0.027954102
0.23366629,0.06691805,0.2305793,0.122531965,0.021237876,0.9922373,0.9804463,0.15252686,-0.12434058,0.1539836,-0.98807114,0.0021331862,1.0890365646362303,0.15522383446693416,-0.77419955444336,0.3300077,0.012778849,0.1158743,0.027893066
0.16904913,0.1716378,0.14984117,0.11787793,0.025415335,0.99270284,0.9816598,0.14784956,-0.12035191,0.14982946,-0.9886833,0.0075210175,0.25114659204483014,0.594818899178505,0.047960525512694474,0.3349504,0.029833417,0.1158743,0.027893066
0.1177551,0.16963935,0.105075486,0.11316742,0.028395696,0.99317014,0.98266715,0.14451826,-0.11610258,0.14682804,-0.9890947,0.011548761,0.7041970649719238,-0.20548530156612396,-0.29826506347656334,0.35278663,0.024488153,0.106876224,0.028442383
0.29282096,0.21120748,0.24203719,0.10751938,0.035780624,0.993559,0.9842911,0.1369325,-0.11144775,0.1400382,-0.989934,0.020495653,0.7603605043411255,-0.4339923994064331,-0.4283649581909188,0.37179115,0.012905149,0.0944582,0.027954102
0.18317163,0.28581697,0.30199125,0.0999313,0.03997579,0.99419105,0.98626304,0.12810096,-0.10428529,0.13152571,-0.9909551,0.026625348,0.4949435090065002,-0.06397519931793216,-0.3473874359130864,0.38326794,0.012905149,0.08439872,0.027832031
0.17131406,0.2790222,0.26308772,0.09249954,0.044021893,0.9947392,0.98795885,0.120375566,-0.09719624,0.124021076,-0.99175197,0.032357138,0.24739075927734366,0.5035960019111633,-0.30881222229003935,0.3878419,0.027432831,0.07543819,0.027893066
0.12961268,0.12820444,0.24856552,0.089250416,0.046994947,0.9949,0.989113,0.113160156,-0.09407651,0.11700416,-0.9924647,0.03638372,0.27658463973999026,0.14149096527099603,-0.4466082778930671,0.39321497,0.031847797,0.062670246,0.027954102
-0.25169513,-0.11187827,0.17075847,0.092568606,0.03956075,0.9949202,0.9893456,0.109108135,-0.09638839,0.11236709,-0.9932424,0.029039266,-0.32060461616516117,-0.6950152762889862,1.3704248428344723,0.38195074,0.012973825,0.1005057,0.027954102
-0.0690351,-0.2296547,0.09375083,0.09905497,0.037390135,0.99437934,0.9889899,0.10670771,-0.10253048,0.10994158,-0.9935872,0.026408538,0.41119222040176395,0.18001278243064878,-0.22204637603759814,0.39109728,0.018532544,0.09385846,0.027954102
-0.09488195,-0.12320293,0.16769417,0.10264723,0.034280244,0.99412704,0.9891214,0.10234732,-0.105659604,0.105368294,-0.9941579,0.023401653,2.3950856920242307,-0.596393557214737,2.370559783935546,0.45537874,0.0024682463,0.15935606,0.027954102
-0.085689,0.0,0.028201055,0.10267323,0.0318233,0.994206,0.98920166,0.10182148,-0.10541561,0.10458622,-0.9942936,0.021025322,-0.33930706138610844,-0.20742092232704162,0.10259945220947131,0.4433099,-0.0026854395,0.15935606,0.027893066
-0.09608103,0.04080473,0.11147058,0.10163357,0.028834406,0.994404,0.98963404,0.09901964,-0.1040173,0.10146482,-0.99466765,0.018471792,-0.4073460750579834,-0.08460541322231294,0.20391647949218772,0.42938268,-0.0026854395,0.164252,0.027954102
-0.1023429,0.12620595,0.070968285,0.09818629,0.025797317,0.9948337,0.99018794,0.09735164,-0.10025224,0.09943495,-0.99491566,0.015985599,-0.663821974849701,-0.009276419043540957,-0.3862067810058596,0.40843722,-0.0026854395,0.15273477,0.027893066
-0.092483796,0.20707732,0.0,0.09235021,0.023190835,0.9954566,0.9907581,0.09760628,-0.09418824,0.09934713,-0.9949549,0.013962552,-0.922142122554779,-0.18649616379737854,-0.5158427108764654,0.37999812,-0.00729547,0.13744663,0.028320312
-0.17148992,0.20667762,0.0,0.086484015,0.018323388,0.9960848,0.9912944,0.09805124,-0.087871805,0.099277474,-0.9950127,0.00968401,-1.103599444580078,0.3564342791318893,-0.37976707916259844,0.34637198,0.0034858887,0.1259958,0.028503418
-0.59583145,-0.14332084,0.0,0.09054436,0.0014432278,0.99589145,0.99093133,0.09956055,-0.09023769,0.09928176,-0.9950305,-0.007584502,-1.2376467509269715,-0.866634142923355,-1.4148609008789066,0.30919206,-0.020422675,0.085333295,0.028442383
-0.17215608,-0.122936465,0.08908773,0.09402324,-0.00366627,0.9955633,0.9908602,0.09749889,-0.09322004,0.09672457,-0.99522895,-0.012799918,-0.8952403616905212,-0.5012723371267318,-0.4065896759033212,0.2818882,-0.033871893,0.07340835,0.028442383
-0.020805389,0.041604117,0.10520872,0.09284562,-0.004525704,0.9956703,0.991253,0.09461929,-0.09200365,0.09379326,-0.9955033,-0.013271099,-0.7275095811843872,-0.09195761076211928,0.025878675842283982,0.2597082,-0.033871893,0.07340835,0.028137207
0.0,0.0,0.18687946,0.09282082,-0.0050085546,0.9956703,0.99173176,0.089462265,-0.09200365,0.08861414,-0.9959777,-0.013271099,-0.9571484370231629,0.022158354836702348,-0.108196617126465,0.23151912,-0.033871893,0.07005918,0.027832031
0.02729109,-0.039267242,0.20086874,0.09388392,-0.0047736927,0.9955718,0.99211586,0.08383415,-0.093156055,0.08301824,-0.99646837,-0.01260673,-0.7049491933822631,-0.554387246710062,-0.08104882202148467,0.21040891,-0.04846779,0.07005918,0.027893066
0.0,0.0,0.13838328,0.09386479,-0.005136043,0.9955718,0.99243206,0.08000402,-0.093156055,0.079171315,-0.9967813,-0.012606728,-0.7718291259765625,-0.3838043636202812,0.014719244384764352,0.1875481,-0.058256418,0.07005918,0.027893066
0.0,0.0,0.0,0.09386479,-0.005136043,0.9955718,0.99243206,0.08000402,-0.093156055,0.07917132,-0.99678135,-0.012606729,0.02065162353515615,-0.5513984798312187,0.10809310913085923,0.1875481,-0.072647445,0.07005918,0.027893066
0.0,0.0,0.0,0.09386479,-0.005136043,0.9955718,0.99243206,0.08000402,-0.093156055,0.07917132,-0.99678135,-0.012606729,0.056564648437499976,0.1429200016140938,0.06260327758788975,0.1875481,-0.067696676,0.07005918,0.027893066
0.0,0.0,0.0,0.09386479,-0.005136043,0.9955718,0.99243206,0.08000402,-0.093156055,0.07917132,-0.99678135,-0.012606729,0.21697615966796868,-0.07495234946012497,-0.16484588012695411,0.19224702,-0.067696676,0.06513936,0.027893066
0.0,0.0,0.0,0.09386479,-0.005136043,0.9955718,0.99243206,0.08000402,-0.093156055,0.07917132,-0.99678135,-0.012606729,0.06374725341796872,-0.18987402914762497,-0.01640537719726609,0.19224702,-0.07200129,0.06513936,0.027893066
0.0,0.0,0.0,0.09386479,-0.005136043,0.9955718,0.99243206,0.08000402,-0.093156055,0.07917132,-0.99678135,-0.012606729,0.25049498291015615,-0.1491726009249687,0.04584386596679657,0.19796096,-0.07521688,0.06513936,0.028442383
0.0,0.0,0.0,0.09386479,-0.005136043,0.9955718,0.99243206,0.08000402,-0.093156055,0.07917132,-0.99678135,-0.012606729,0.14515010986328125,-0.13001898764371872,-0.061895208740235574,0.19796096,-0.07521688,0.06513936,0.027954102
0.0,0.0,0.0,0.09386479,-0.005136043,0.9955718,0.99243206,0.08000402,-0.093156055,0.07917132,-0.99678135,-0.012606729,0.04938204345703123,-0.19466243246793746,-0.009222772216796571,0.19796096,-0.07959447,0.06513936,0.027832031
0.0,0.0,0.0,0.09386479,-0.005136043,0.9955718,0.99243206,0.08000402,-0.093156055,0.07917132,-0.99678135,-0.012606729,0.046987841796874985,-0.18508562582731244,-0.02358798217773561,0.19796096,-0.083684966,0.06513936,0.027832031
0.0,0.0,0.0,0.09386479,-0.005136043,0.9955718,0.99243206,0.08000402,-0.093156055,0.07917132,-0.99678135,-0.012606729,0.1283906982421874,-0.18508562582731244,-0.04513579711914062,0.19796096,-0.08775501,0.06513936,0.027832031
0.0,0.0,0.0,0.09386479,-0.005136043,0.9955718,0.99243206,0.08000402,-0.093156055,0.07917132,-0.99678135,-0.012606729,0.18585153808593746,-0.16593201254606246,0.0506322692871084,0.20171061,-0.091274284,0.06513936,0.027832031
0.0,0.0,0.0,0.09386479,-0.005136043,0.9955718,0.99243206,0.08000402,-0.093156055,0.07917132,-0.99678135,-0.012606729,0.17388052978515622,-0.1395957942843437,0.024296051025389787,0.20511745,-0.091274284,0.06513936,0.027893066
0.0,0.0,0.0,0.09386479,-0.005136043,0.9955718,0.99243206,0.08000402,-0.093156055,0.07917132,-0.99678135,-0.012606729,0.05177624511718748,-0.14198999594449996,-0.03316478881835927,0.20511745,-0.09414244,0.06513936,0.028259277
0.0,0.0,0.0,0.09386479,-0.005136043,0.9955718,0.99243206,0.08000402,-0.093156055,0.07917132,-0.99678135,-0.012606729,0.14993851318359375,-0.10368276938199997,-0.05710680541992197,0.20511745,-0.09414244,0.06513936,0.028381348
0.0,0.0,0.0,0.09386479,-0.005136043,0.9955718,0.99243206,0.08000402,-0.093156055,0.07917132,-0.99678135,-0.012606729,0.16909212646484373,-0.13241318930387497,-0.042741595458984705,0.20841041,-0.09414244,0.06513936,0.028320312
0.0,0.0,0.0,0.09386479,-0.005136043,0.9955718,0.99243206,0.08000402,-0.093156055,0.07917132,-0.99678135,-0.012606729,0.12599649658203116,-0.12283638266324995,0.036267059326171136,0.20841041,-0.09414244,0.06513936,0.028442383
0.0,0.0,0.0,0.09386479,-0.005136043,0.9955718,0.99243206,0.08000402,-0.093156055,0.07917132,-0.99678135,-0.012606729,0.09966027832031243,-0.13241318930387497,0.0003540344238270876,0.20841041,-0.09414244,0.06513936,0.028259277
0.0,0.0,0.0,0.09386479,-0.005136043,0.9955718,0.99243206,0.08000402,-0.093156055,0.07917132,-0.99678135,-0.012606729,0.09966027832031243,-0.1156537776827812,0.048238067626952486,0.20841041,-0.09414244,0.06513936,0.027893066
0.0,0.0,0.0,0.09386479,-0.005136043,0.9955718,0.99243206,0.08000402,-0.093156055,0.07917132,-0.99678135,-0.012606729,0.11402548828124992,-0.12762478598356247,-0.004434368896484742,0.20841041,-0.09414244,0.06513936,0.027832031
0.0,0.0,0.0,0.09386479,-0.005136043,0.9955718,0.99243206,0.08000402,-0.093156055,0.07917132,-0.99678135,-0.012606729,0.13078489990234365,-0.11325957602262496,0.007536639404296608,0.20841041,-0.09414244,0.06513936,0.027893066
0.0,0.0,0.0,0.09386479,-0.005136043,0.9955718,0.99243206,0.08000402,-0.093156055,0.07917132,-0.99678135,-0.012606729,0.056564648437499976,-0.13720159262418746,0.0003540344238270876,0.20841041,-0.09414244,0.06513936,0.027893066
0.0,0.0,0.0,0.09386479,-0.005136043,0.9955718,0.99243206,0.08000402,-0.093156055,0.07917132,-0.99678135,-0.012606729,0.0781124633789062,-0.10847117270231246,-0.04513579711914062,0.20841041,-0.09414244,0.06513936,0.027832031
0.0,0.0,0.0,0.09386479,-0.005136043,0.9955718,0.99243206,0.08000402,-0.093156055,0.07917132,-0.99678135,-0.012606729,0.15472691650390624,-0.09889436606168747,-0.04513579711914062,0.20841041,-0.09414244,0.06513936,0.027832031
0.0,0.0,0.0,0.09386479,-0.005136043,0.9955718,0.99243206,0.08000402,-0.093156055,0.07917132,-0.99678135,-0.012606729,0.16669792480468748,-0.13241318930387497,-0.0666836120605474,0.21150465,-0.09414244,0.06513936,0.027832031
0.0,0.0,0.0,0.09386479,-0.005136043,0.9955718,0.99243206,0.08000402,-0.093156055,0.07917132,-0.99678135,-0.012606729,0.13078489990234365,-0.10847117270231246,-0.025982183837891526,0.21150465,-0.09414244,0.06513936,0.027893066
0.0,0.0,0.0,0.09386479,-0.005136043,0.9955718,0.99243206,0.08000402,-0.093156055,0.07917132,-0.99678135,-0.012606729,0.1427559082031249,-0.15874940756559372,0.03387285766601522,0.21150465,-0.09729655,0.06513936,0.027893066
0.0,0.0,0.0,0.09386479,-0.005136043,0.9955718,0.99243206,0.08000402,-0.093156055,0.07917132,-0.99678135,-0.012606729,0.0876892700195312,-0.15635520590543744,0.009930841064452522,0.21150465,-0.10036845,0.06513936,0.027893066
0.0,0.0,0.0,0.09386479,-0.005136043,0.9955718,0.99243206,0.08000402,-0.093156055,0.07917132,-0.99678135,-0.012606729,0.056564648437499976,-0.14677839926481245,0.009930841064452522,0.21150465,-0.10315309,0.06513936,0.027832031
0.0,0.0,0.0,0.09386479,-0.005136043,0.9955718,0.99243206,0.08000402,-0.093156055,0.07917132,-0.99678135,-0.012606729,0.17627473144531247,-0.15635520590543744,-0.047529998779296534,0.21482183,-0.10618901,0.06513936,0.027832031
0.0,0.0,0.0,0.09386479,-0.005136043,0.9955718,0.99243206,0.08000402,-0.093156055,0.07917132,-0.99678135,-0.012606729,0.15951531982421874,-0.1252305843234062,0.055420672607422006,0.21772052,-0.10618901,0.06513936,0.028442383
0.0,0.0,0.0,0.09386479,-0.005136043,0.9955718,0.99243206,0.08000402,-0.093156055,0.07917132,-0.99678135,-0.012606729,0.10444868164062493,-0.11804797934293745,0.009930841064452522,0.21772052,-0.10618901,0.06513936,0.027832031
0.0,0.0,0.0,0.09386479,-0.005136043,0.9955718,0.99243206,0.08000402,-0.093156055,0.07917132,-0.99678135,-0.012606729,0.12360229492187491,-0.16593201254606246,0.014719244384764352,0.21772052,-0.10945443,0.06513936,0.027832031
0.0,0.0,0.0,0.09386479,-0.005136043,0.9955718,0.99243206,0.08000402,-0.093156055,0.07917132,-0.99678135,-0.012606729,0.037411035156249994,-0.11804797934293745,-0.03316478881835927,0.21772052,-0.10945443,0.06513936,0.027832031
0.0,0.0,0.0,0.09386479,-0.005136043,0.9955718,0.99243206,0.08000402,-0.093156055,0.07917132,-0.99678135,-0.012606729,0.11641968994140617,-0.09410596274137495,-0.0906256286621101,0.21772052,-0.10945443,0.06513936,0.027770996
0.0,0.0,0.0,0.09386479,-0.005136043,0.9955718,0.99243206,0.08000402,-0.093156055,0.07917132,-0.99678135,-0.012606729,0.10444868164062493,-0.13480739096403122,0.053026470947264315,0.21772052,-0.10945443,0.06513936,0.027954102
0.0,0.0,0.0,0.09386479,-0.005136043,0.9955718,0.99243206,0.08000402,-0.093156055,0.07917132,-0.99678135,-0.012606729,0.10444868164062493,-0.07734655112028122,0.017113446044922043,0.21772052,-0.10945443,0.06513936,0.028381348
0.0,0.0,0.0,0.09386479,-0.005136043,0.9955718,0.99243206,0.08000402,-0.093156055,0.07917132,-0.99678135,-0.012606729,0.09487187499999994,-0.15156680258512495,-0.01640537719726609,0.21772052,-0.11232361,0.06513936,0.028320312
0.0,0.0,0.0,0.09386479,-0.005136043,0.9955718,0.99243206,0.08000402,-0.093156055,0.07917132,-0.99678135,-0.012606729,0.1331791015624999,-0.1156537776827812,-0.05231840209961014,0.21772052,-0.11232361,0.06513936,0.028381348
0.0,0.0,0.0,0.09386479,-0.005136043,0.9955718,0.99243206,0.08000402,-0.093156055,0.07917132,-0.99678135,-0.012606729,0.10444868164062493,-0.17072041586637496,0.060209075927733835,0.21772052,-0.11569437,0.06513936,0.028198242
0.0,0.0,0.0,0.09386479,-0.005136043,0.9955718,0.99243206,0.08000402,-0.093156055,0.07917132,-0.99678135,-0.012606729,0.12599649658203116,-0.11804797934293745,0.03866126098632705,0.21772052,-0.11569437,0.06513936,0.027893066
0.0,0.0,0.0,0.09386479,-0.005136043,0.9955718,0.99243206,0.08000402,-0.093156055,0.07917132,-0.99678135,-0.012606729,0.12360229492187491,-0.08452915610074996,0.036267059326171136,0.21772052,-0.11569437,0.06513936,0.027832031
0.0,0.0,0.0,0.09386479,-0.005136043,0.9955718,0.99243206,0.08000402,-0.093156055,0.07917132,-0.99678135,-0.012606729,0.06135305175781247,-0.07495234946012497,-0.01640537719726609,0.21772052,-0.11569437,0.06513936,0.027832031
0.0,0.0,0.0,0.09386479,-0.005136043,0.9955718,0.99243206,0.08000402,-0.093156055,0.07917132,-0.99678135,-0.012606729,0.04938204345703123,-0.1395957942843437,0.014719244384764352,0.21772052,-0.11569437,0.06513936,0.027893066
0.0,0.0,0.0,0.09386479,-0.005136043,0.9955718,0.99243206,0.08000402,-0.093156055,0.07917132,-0.99678135,-0.012606729,0.08050666503906245,-0.16353781088590622,0.12485252075195241,0.21772052,-0.11879011,0.06836739,0.027954102
0.0,0.0,0.0,0.09386479,-0.005136043,0.9955718,0.99243206,0.08000402,-0.093156055,0.07917132,-0.99678135,-0.012606729,0.14515010986328125,-0.1252305843234062,-0.006828570556640656,0.21772052,-0.11879011,0.06836739,0.027832031
0.0,0.0,0.0,0.09386479,-0.005136043,0.9955718,0.99243206,0.08000402,-0.093156055,0.07917132,-0.99678135,-0.012606729,0.14993851318359375,-0.06298134115934372,-0.014011175537110176,0.21772052,-0.11879011,0.06836739,0.027832031
0.0,0.0,0.0,0.09386479,-0.005136043,0.9955718,0.99243206,0.08000402,-0.093156055,0.07917132,-0.99678135,-0.012606729,0.14036170654296865,-0.04622192953824997,0.009930841064452522,0.21772052,-0.11879011,0.06836739,0.027770996
0.0,0.0,0.0,0.09386479,-0.005136043,0.9955718,0.99243206,0.08000402,-0.093156055,0.07917132,-0.99678135,-0.012606729,0.14515010986328125,-0.1491726009249687,-0.03316478881835927,0.21772052,-0.11879011,0.06836739,0.027832031
0.0,0.0,0.0,0.09386479,-0.005136043,0.9955718,0.99243206,0.08000402,-0.093156055,0.07917132,-0.99678135,-0.012606729,0.20500515136718744,-0.048616131198406215,-0.04513579711914062,0.22169878,-0.11879011,0.06836739,0.027954102
0.0,0.0,0.0,0.09386479,-0.005136043,0.9955718,0.99243206,0.08000402,-0.093156055,0.07917132,-0.99678135,-0.012606729,0.12599649658203116,-0.10128856772184372,-0.054712603759766054,0.22169878,-0.11879011,0.06836739,0.027893066
0.0,0.0,0.0,0.09386479,-0.005136043,0.9955718,0.99243206,0.08000402,-0.093156055,0.07917132,-0.99678135,-0.012606729,0.10684288330078118,-0.1252305843234062,-0.0666836120605474,0.22169878,-0.11879011,0.06836739,0.027832031
0.0,0.0,0.0,0.09386479,-0.005136043,0.9955718,0.99243206,0.08000402,-0.093156055,0.07917132,-0.99678135,-0.012606729,0.10684288330078118,-0.1683262142062187,-0.08344302368164058,0.22169878,-0.12195003,0.06836739,0.027832031
0.0,0.0,0.0,0.09386479,-0.005136043,0.9955718,0.99243206,0.08000402,-0.093156055,0.07917132,-0.99678135,-0.012606729,0.07571826171874996,-0.13480739096403122,-0.07626041870117284,0.22169878,-0.12195003,0.06836739,0.028564453
0.0,0.0,0.0,0.09386479,-0.005136043,0.9955718,0.99243206,0.08000402,-0.093156055,0.07917132,-0.99678135,-0.012606729,0.018257421874999902,-0.10607697104215622,-0.03316478881835927,0.22169878,-0.12195003,0.06836739,0.027954102
0.0,0.0,0.0,0.09386479,-0.005136043,0.9955718,0.99243206,0.08000402,-0.093156055,0.07917132,-0.99678135,-0.012606729,0.1475443115234375,-0.18029722250699995,0.07696848754882701,0.22169878,-0.12541512,0.06836739,0.027893066
0.0,0.0,0.0,0.09386479,-0.005136043,0.9955718,0.99243206,0.08000402,-0.093156055,0.07917132,-0.99678135,-0.012606729,0.10684288330078118,-0.1156537776827812,0.07696848754882701,0.22169878,-0.12541512,0.06836739,0.027832031
0.0,0.0,0.0,0.09386479,-0.005136043,0.9955718,0.99243206,0.08000402,-0.093156055,0.07917132,-0.99678135,-0.012606729,0.13557330322265615,-0.12762478598356247,0.014719244384764352,0.22169878,-0.12541512,0.06836739,0.027832031
0.0,0.0,-0.02495821,0.09386833,-0.0050709825,0.9955718,0.9923764,0.080691874,-0.093156055,0.079862185,-0.9967262,-0.012606729,0.15709197149276732,-0.18801646300554276,0.06739168090820336,0.22169878,-0.12904301,0.06836739,0.027770996
0.0,0.0,-0.21801028,0.09389743,-0.0045000776,0.9955718,0.99186736,0.086725,-0.093156055,0.08592177,-0.99622214,-0.012606729,-0.008348030567169262,-0.19990805471539497,0.04584386596679657,0.22169878,-0.13299868,0.06836739,0.027893066
0.0,0.0,0.07629754,0.09388764,-0.0046998975,0.9955718,0.9920497,0.084613934,-0.093156055,0.08380145,-0.99640274,-0.012606729,0.09468340511322015,0.4409919612824917,0.009930841064452522,0.22169878,-0.11914727,0.06836739,0.027893066
0.0,0.0,-0.046275206,0.09389363,-0.0045787073,0.9955718,0.99193954,0.08589435,-0.09315605,0.0850875,-0.9962938,-0.01260673,0.022807943058013924,-0.7044360431432724,0.03387285766601522,0.22169878,-0.13715488,0.06836739,0.027893066
-0.021338314,-0.040599555,-0.119152695,0.095036685,-0.004857273,0.995462,0.99154246,0.08924622,-0.09422703,0.08838357,-0.9959978,-0.013297852,0.16900296707153317,0.12386121416091918,0.027597196960448045,0.22460419,-0.1320842,0.06836739,0.027893066
0.0,-0.037002314,-0.09197352,0.09607393,-0.004612669,0.9953636,0.9912132,0.09178396,-0.09524801,0.09091911,-0.9957683,-0.01339018,-0.9863751596450805,-0.17264315510988235,0.06432179870605381,0.19549301,-0.13526098,0.06836739,0.027832031
0.0,0.0,-0.03401793,0.09607827,-0.0045215054,0.9953636,0.99112564,0.09272445,-0.09524801,0.091863915,-0.9956816,-0.01339018,-0.26336202106475837,-0.07044442611932754,-0.4743735748291016,0.18653008,-0.13526098,0.054961305,0.027893066
0.023560613,0.0,0.10787334,0.09606524,-0.0041572438,0.99536645,0.99139947,0.089685865,-0.09530781,0.08887412,-0.9959615,-0.012737178,-0.6942108527183533,0.357507340401411,0.10978778839111314,0.16570005,-0.12373884,0.05782854,0.027832031
0.030355409,0.022951744,0.33090243,0.09538942,-0.0041979873,0.9954313,0.9922455,0.0804508,-0.09474487,0.07968554,-0.9967498,-0.0118395835,-0.6431466159820557,0.39854483451247213,0.0015137023925770876,0.14634593,-0.11111023,0.05782854,0.027893066
0.0,0.0,0.28840166,0.09535256,-0.004965203,0.9954313,0.99286056,0.07246617,-0.09474487,0.0716647,-0.99735856,-0.0118395835,-0.5710165824890137,-0.2559266134560108,-0.14692680053710916,0.12909044,-0.1167087,0.053563673,0.027893066
0.0,-0.021813951,0.15383811,0.09593731,-0.005376517,0.99537295,0.99310505,0.068195924,-0.095350385,0.067367755,-0.99765754,-0.011881974,-0.6955499925613403,-0.48477153771519654,-0.1703881652832031,0.10841985,-0.12865654,0.04865828,0.027954102
0.076320186,0.0,0.16009998,0.09591704,-0.0036822231,0.9953826,0.99339986,0.06354707,-0.09549092,0.062902056,-0.99797213,-0.00975316,-0.6738348077774048,0.12374587715268134,-0.04357367858886718,0.0884566,-0.12361913,0.04865828,0.027954102
0.10549782,0.09729478,0.20526537,0.093201086,-0.0012941316,0.99564654,0.99400234,0.057580285,-0.09297235,0.057209324,-0.99834013,-0.0066529084,-0.9339487939834594,0.16390326925218104,0.6246245941162112,0.06141744,-0.117503345,0.065859295,0.027893066
-0.040656842,0.03307732,0.19953643,0.0922686,-0.0029430324,0.99572986,0.9943939,0.05213985,-0.09199071,0.051646505,-0.99863553,-0.0077373977,-0.7442980844497681,-0.6461015028208493,0.9471542190551752,0.039729614,-0.13393456,0.0919827,0.027954102
-0.14058027,0.04293643,0.06603873,0.09106949,-0.0070076426,0.9958199,0.9945975,0.050669175,-0.090601146,0.049822506,-0.99869096,-0.0115841925,-0.4614684792518616,-0.5407493993639946,-0.19322868347168054,0.026076822,-0.14729472,0.08628151,0.027832031
-0.077162206,0.28235295,0.08282587,0.083205044,-0.009353009,0.9964886,0.9953944,0.048556883,-0.08265794,0.04761331,-0.9987767,-0.013350102,0.16124865970611568,0.10827088351249695,-0.45252915802002036,0.029745147,-0.14260457,0.07339986,0.027893066
0.108961836,0.40159494,0.042989723,0.07200336,-0.0064095706,0.99738383,0.9963179,0.04712511,-0.07162358,0.04654278,-0.99886847,-0.009779127,-0.8405067893981933,0.03850273904800415,-0.5221627014160157,0.005539959,-0.14260457,0.058617756,0.027954102
0.2537842,0.41398543,-0.065593734,0.060461104,0.0007907506,0.99817026,0.9969944,0.048484243,-0.0604283,0.048443355,-0.99882364,-0.0021430287,-0.7453030321121216,-0.5476119093760847,-0.47837135925292973,-0.015896175,-0.1561843,0.045127593,0.027954102
0.17198022,0.22186598,-0.15565807,0.054254785,0.005840006,0.99851006,0.99713093,0.052546594,-0.054487187,0.052786555,-0.99860144,0.0029723544,-0.5791898734569549,-0.3785698480427265,0.22990368499755753,-0.032604802,-0.16499434,0.05140508,0.027954102
-0.052514423,0.06944945,-0.21308073,0.052246142,0.0046687163,0.9986233,0.99689895,0.05868208,-0.052430283,0.058846124,-0.99826586,0.0015883344,-0.2920772297859192,-0.22525662155151366,-0.13255441284179703,-0.041413806,-0.16958448,0.04749428,0.028503418
-0.16216373,0.045867518,-0.19269635,0.05094915,0.00041024527,0.99870116,0.99663335,0.06429776,-0.050870083,0.064235166,-0.9979307,-0.002867044,-0.5064342547893524,0.32701601008772846,-0.08291895446777353,-0.05600383,-0.1586788,0.04749428,0.028015137
-0.05078242,-0.15144795,-0.3580363,0.05516798,-0.00047437905,0.998477,0.9957176,0.07432156,-0.054980222,0.07418234,-0.9972342,-0.0045725093,-0.41433965249061583,0.09968087897077202,-0.16965428771972668,-0.06790169,-0.1541843,0.042668857,0.027893066
0.04954071,-0.2484403,-0.3968066,0.0620801,0.0015540231,0.99806994,0.9944292,0.08525484,-0.0619864,0.085186675,-0.996358,-0.0037472518,-0.14813555259704592,-0.03436583757251501,0.03960303497314399,-0.07235195,-0.1541843,0.042668857,0.027893066
-0.056911055,-0.39379558,-0.3545723,0.073028766,0.0006383178,0.9973296,0.9927968,0.09518927,-0.07275779,0.09498158,-0.995459,-0.0063178185,-0.1833766269683838,-0.20637796534076333,0.637078175354004,-0.077758014,-0.15821026,0.060252257,0.027893066
-0.07476404,-0.29387215,-0.28902254,0.08120229,-0.0008192193,0.99669725,0.9913676,0.103347436,-0.080683134,0.10294007,-0.994645,-0.009204177,0.2998721928596496,0.14801505068168044,-0.21243712615966892,-0.069725156,-0.15238042,0.05417063,0.027893066
-0.02959865,-0.17609572,-0.32326296,0.086104736,-0.0008876356,0.9962856,0.9899871,0.11234899,-0.08546028,0.111855894,-0.99366844,-0.010552508,0.3336556996345519,0.33532709692716595,-0.22340630187988353,-0.060794845,-0.14138114,0.04781498,0.027893066
0.106830135,-0.0885628,-0.29368562,0.08855781,0.0027962653,0.99606705,0.98882,0.12019532,-0.08825092,0.11996944,-0.99274635,-0.007879211,0.6103030147552488,0.0008776286393403984,-0.6453775512695321,-0.04423123,-0.14138114,0.029779887,0.027893066
0.17211345,0.084637806,-0.2884896,0.08616145,0.008281686,0.9962467,0.98802876,0.12772971,-0.08651251,0.12796684,-0.99177444,-0.0028228122,1.0227179409027098,-0.38673851532936093,-0.536725331115723,-0.016304431,-0.1504851,0.014850458,0.027893066
0.1932972,0.3034035,-0.20575301,0.0776631,0.014125105,0.9968795,0.98798037,0.13295431,-0.07885367,0.13365333,-0.9910215,0.0036297017,1.0066234719276428,0.42218750804662697,-0.6377138107299807,0.011036053,-0.13709292,-0.002807117,0.027893066
0.23046874,0.2688966,-0.19402866,0.070089385,0.020934982,0.99732095,0.9878146,0.13781515,-0.07231421,0.1389599,-0.9902367,0.011020522,0.7362995792388916,-0.3235123705387115,0.24689387664794893,0.030737374,-0.14446355,0.0041746446,0.027893066
0.2423263,0.03414317,-0.21827674,0.068992786,0.02808363,0.9972217,0.9870293,0.14332618,-0.072323956,0.14495918,-0.989277,0.017830914,1.1954545557975769,-0.10953745493888856,0.14954986114501878,0.063012615,-0.14446355,0.008410561,0.027832031
-0.10940416,-0.14531931,-0.34164888,0.07276997,0.025721388,0.99701697,0.9853211,0.1529294,-0.07586163,0.15442455,-0.98790234,0.01421518,1.0445892441749571,-1.5241798188209532,0.10335478515624885,0.09094858,-0.18502426,0.0113460235,0.027832031
0.06925893,-0.3371723,-0.2491864,0.08205637,0.028211813,0.9962283,0.9834555,0.15968896,-0.08552648,0.16149959,-0.9867642,0.014641588,1.1595284612655639,0.7561062639474868,-2.7703638458251953,0.12233549,-0.16193463,-0.06632341,0.028198242
-0.38066295,0.0,-0.057733092,0.08201879,0.017558739,0.99647605,0.9831912,0.16222028,-0.08378378,0.16311984,-0.9865984,0.0039585074,1.6458614020347593,-0.022725167369842536,-1.8506408843994144,0.16759916,-0.16193463,-0.118245274,0.028442383
-0.04438732,-0.048193738,-0.050538607,0.08336311,0.016417181,0.99638397,0.98284054,0.16374306,-0.08492794,0.16454531,-0.98636645,0.0024853628,0.8925705757141111,-0.04443389420509339,-1.1196492996215825,0.19136915,-0.16193463,-0.1492868,0.028503418
-0.34575638,0.0,0.17448895,0.083419174,0.0062258085,0.99649507,0.98364145,0.15969932,-0.08334091,0.15965852,-0.98714614,-0.0071980003,1.083644236087799,-0.4559723132610321,-0.26822998962402433,0.22031482,-0.17304789,-0.15599726,0.028381348
-0.055845205,0.0,0.06523934,0.08342906,0.0044993833,0.99650353,0.98393434,0.15801692,-0.08309021,0.15783834,-0.9874262,-0.008756083,1.3134060563087462,0.1185109203159809,-0.4598357406616218,0.2554523,-0.1679047,-0.168033,0.028259277
-0.13565072,0.0,0.033663537,0.083431475,0.00065894844,0.99651325,0.9840821,0.15740755,-0.08249477,0.15691315,-0.98753357,-0.012484264,1.1433978304862975,-0.4723045171536505,-0.01459434051513675,0.28517753,-0.17922598,-0.168033,0.027832031
-0.020805389,0.0,-0.08171472,0.08343042,0.00026995785,0.99651355,0.9837198,0.15970299,-0.08240255,0.15916851,-0.98716515,-0.013058503,0.8297661748886107,-0.655843742121756,0.11229644012451168,0.3061604,-0.19564508,-0.16396846,0.027954102
0.0,0.0,-0.041878574,0.083430044,0.0003676278,0.99651355,0.98353225,0.16085452,-0.08240256,0.16032405,-0.9869781,-0.013058503,0.3988129158973692,0.6242485369008034,-0.16064254913330167,0.31505165,-0.17637718,-0.16751586,0.027954102
0.0,0.0,0.0,0.083430044,0.0003676278,0.99651355,0.98353225,0.16085452,-0.08240256,0.16032405,-0.9869781,-0.013058503,0.22403619470596303,-0.18978002755232154,-0.04572086944580178,0.31903717,-0.17984727,-0.16751586,0.027954102
0.0,0.0,0.0,0.083430044,0.0003676278,0.99651355,0.98353225,0.16085452,-0.08240256,0.16032405,-0.9869781,-0.013058503,0.2168535897254943,-0.18978002755232154,-0.07923969268798814,0.32279477,-0.18329248,-0.16751586,0.027893066
0.0,0.0,0.0,0.083430044,0.0003676278,0.99651355,0.98353225,0.16085452,-0.08240256,0.16032405,-0.9869781,-0.013058503,0.1976999764442443,-0.20893364083357155,-0.040932466125488176,0.32606515,-0.18733002,-0.16751586,0.028442383
0.0,0.0,0.0,0.083430044,0.0003676278,0.99651355,0.98353225,0.16085452,-0.08240256,0.16032405,-0.9869781,-0.013058503,0.0875667000770568,-0.1921742292124778,-0.005019441223144128,0.32606515,-0.19080465,-0.16751586,0.027893066
0.0,0.0,0.0,0.083430044,0.0003676278,0.99651355,0.98353225,0.16085452,-0.08240256,0.16032405,-0.9869781,-0.013058503,0.2024883797645568,-0.19696263253279028,0.033287785339355835,0.3293813,-0.19438694,-0.16751586,0.027832031
0.0,0.0,0.0,0.083430044,0.0003676278,0.99651355,0.98353225,0.16085452,-0.08240256,0.16032405,-0.9869781,-0.013058503,0.1976999764442443,-0.22808725411482153,0.004557365417479531,0.33256212,-0.19883268,-0.16751586,0.027954102
0.0,0.0,0.0,0.083430044,0.0003676278,0.99651355,0.98353225,0.16085452,-0.08240256,0.16032405,-0.9869781,-0.013058503,0.18572896814346307,-0.2209046491343528,-0.0936049026489254,0.3353879,-0.20304717,-0.16751586,0.027893066
0.0,0.0,0.0,0.083430044,0.0003676278,0.99651355,0.98353225,0.16085452,-0.08240256,0.16032405,-0.9869781,-0.013058503,0.14981594324111935,-0.1825974225718528,-0.03614406280517635,0.3353879,-0.20621853,-0.16751586,0.028259277
0.0,0.0,0.0,0.083430044,0.0003676278,0.99651355,0.98353225,0.16085452,-0.08240256,0.16032405,-0.9869781,-0.013058503,0.12347972497940063,-0.17062641427107153,-0.005019441223144128,0.3353879,-0.20621853,-0.16751586,0.028381348
0.0,0.0,0.0,0.083430044,0.0003676278,0.99651355,0.98353225,0.16085452,-0.08240256,0.16032405,-0.9869781,-0.013058503,0.1665753548622131,-0.28554809395857156,-0.024173054504394997,0.3353879,-0.21228078,-0.16751586,0.028381348
0.0,0.0,0.0,0.083430044,0.0003676278,0.99651355,0.98353225,0.16085452,-0.08240256,0.16032405,-0.9869781,-0.013058503,0.1569985482215881,-0.1730206159312278,-0.009807844543457733,0.3353879,-0.21514115,-0.16751586,0.028442383
0.0,0.0,0.0,0.083430044,0.0003676278,0.99651355,0.98353225,0.16085452,-0.08240256,0.16032405,-0.9869781,-0.013058503,0.14981594324111935,-0.21851044747419654,-0.03135565948486452,0.3353879,-0.2192391,-0.16751586,0.028198242
0.0,0.0,0.0,0.083430044,0.0003676278,0.99651355,0.98353225,0.16085452,-0.08240256,0.16032405,-0.9869781,-0.013058503,0.18333476648330682,-0.2448466657359153,0.0069515670776354455,0.3353879,-0.22399293,-0.16751586,0.027832031
0.0,0.0,0.0,0.083430044,0.0003676278,0.99651355,0.98353225,0.16085452,-0.08240256,0.16032405,-0.9869781,-0.013058503,0.2120651864051818,-0.22808725411482153,-0.0936049026489254,0.3388647,-0.22825888,-0.16751586,0.027832031
0.0,0.0,0.0,0.083430044,0.0003676278,0.99651355,0.98353225,0.16085452,-0.08240256,0.16032405,-0.9869781,-0.013058503,0.20488258142471305,-0.23048145577497778,-0.03135565948486452,0.34213242,-0.23257925,-0.16751586,0.027893066
0.0,0.0,0.0,0.083430044,0.0003676278,0.99651355,0.98353225,0.16085452,-0.08240256,0.16032405,-0.9869781,-0.013058503,0.1976999764442443,-0.2161162458140403,-0.00023103790283229841,0.34518442,-0.23647933,-0.16751586,0.027893066
0.0,0.0,0.0,0.083430044,0.0003676278,0.99651355,0.98353225,0.16085452,-0.08240256,0.16032405,-0.9869781,-0.013058503,0.1569985482215881,-0.18499162423200904,-0.019384651184083168,0.34518442,-0.2394895,-0.16751586,0.027832031
0.0,0.0,0.0,0.083430044,0.0003676278,0.99651355,0.98353225,0.16085452,-0.08240256,0.16032405,-0.9869781,-0.013058503,0.08277829675674431,-0.1921742292124778,-0.014596247863769563,0.34518442,-0.24268351,-0.16751586,0.027832031
0.0,0.0,0.0,0.083430044,0.0003676278,0.99651355,0.98353225,0.16085452,-0.08240256,0.16032405,-0.9869781,-0.013058503,0.26473762292861935,-0.2496350690562278,-0.016990449523925477,0.35007298,-0.24746327,-0.16751586,0.027893066
0.0,0.0,0.0,0.083430044,0.0003676278,0.99651355,0.98353225,0.16085452,-0.08240256,0.16032405,-0.9869781,-0.013058503,0.25037241296768187,-0.2640002790171653,-0.03853826446533226,0.3545384,-0.25261784,-0.16751586,0.027893066
0.0,0.0,0.0,0.083430044,0.0003676278,0.99651355,0.98353225,0.16085452,-0.08240256,0.16032405,-0.9869781,-0.013058503,0.16418115320205684,-0.19456843087263404,0.0069515670776354455,0.3545384,-0.25581962,-0.16751586,0.027893066
0.0,0.0,0.0,0.083430044,0.0003676278,0.99651355,0.98353225,0.16085452,-0.08240256,0.16032405,-0.9869781,-0.013058503,0.1569985482215881,-0.22329885079450904,0.002163163757323616,0.3545384,-0.25982893,-0.16751586,0.028076172
0.0,0.0,0.0,0.083430044,0.0003676278,0.99651355,0.98353225,0.16085452,-0.08240256,0.16032405,-0.9869781,-0.013058503,0.11390291833877564,-0.16104960763044654,0.0237109786987304,0.3545384,-0.25982893,-0.16751586,0.028015137
0.0,0.0,0.0,0.083430044,0.0003676278,0.99651355,0.98353225,0.16085452,-0.08240256,0.16032405,-0.9869781,-0.013058503,0.13545073328018187,-0.1586554059702903,0.011739970397949051,0.3545384,-0.25982893,-0.16751586,0.027954102
0.0,0.0,0.0,0.083430044,0.0003676278,0.99651355,0.98353225,0.16085452,-0.08240256,0.16032405,-0.9869781,-0.013058503,0.1474217415809631,-0.1538670026499778,-0.06487448272705088,0.3545384,-0.25982893,-0.16751586,0.027954102
0.0,0.0,0.0,0.083430044,0.0003676278,0.99651355,0.98353225,0.16085452,-0.08240256,0.16032405,-0.9869781,-0.013058503,0.20009417810440056,-0.16104960763044654,-0.005019441223144128,0.3576154,-0.25982893,-0.16751586,0.028503418
0.0,0.0,0.0,0.083430044,0.0003676278,0.99651355,0.98353225,0.16085452,-0.08240256,0.16032405,-0.9869781,-0.013058503,0.1426333382606506,-0.21372204415388404,-0.019384651184083168,0.3576154,-0.2634913,-0.16751586,0.027954102
0.0,0.0,0.0,0.083430044,0.0003676278,0.99651355,0.98353225,0.16085452,-0.08240256,0.16032405,-0.9869781,-0.013058503,0.12826812829971312,-0.16104960763044654,-0.019384651184083168,0.3576154,-0.2634913,-0.16751586,0.027832031
0.0,0.0,0.0,0.083430044,0.0003676278,0.99651355,0.98353225,0.16085452,-0.08240256,0.16032405,-0.9869781,-0.013058503,0.1522101449012756,-0.1873858258921653,-0.028961457824706827,0.3576154,-0.2663793,-0.16751586,0.027832031
0.0,0.0,0.0,0.083430044,0.0003676278,0.99651355,0.98353225,0.16085452,-0.08240256,0.16032405,-0.9869781,-0.013058503,0.17854636316299433,-0.1634438092906028,-0.11036431427002036,0.3576154,-0.2663793,-0.16751586,0.027832031
0.0,0.0,0.0,0.083430044,0.0003676278,0.99651355,0.98353225,0.16085452,-0.08240256,0.16032405,-0.9869781,-0.013058503,0.1617869515419006,-0.1873858258921653,-0.026567256164550912,0.3576154,-0.26924807,-0.16751586,0.027893066
0.0,0.0,0.0,0.083430044,0.0003676278,0.99651355,0.98353225,0.16085452,-0.08240256,0.16032405,-0.9869781,-0.013058503,0.2024883797645568,-0.2113278424937278,0.09553702850341672,0.36063626,-0.27276698,-0.16396351,0.027893066
0.0,0.0,0.0,0.083430044,0.0003676278,0.99651355,0.98353225,0.16085452,-0.08240256,0.16032405,-0.9869781,-0.013058503,0.17136375818252558,-0.19696263253279028,-0.10557591094970675,0.36063626,-0.2758628,-0.16396351,0.027832031
0.0,0.0,0.0,0.083430044,0.0003676278,0.99651355,0.98353225,0.16085452,-0.08240256,0.16032405,-0.9869781,-0.013058503,0.18572896814346307,-0.1538670026499778,0.02849938201904223,0.36063626,-0.2758628,-0.16396351,0.027770996
0.0,0.0,0.0,0.083430044,0.0003676278,0.99651355,0.98353225,0.16085452,-0.08240256,0.16032405,-0.9869781,-0.013058503,0.11150871667861939,-0.11795397774763405,-0.040932466125488176,0.36063626,-0.2758628,-0.16396351,0.027770996
0.0,0.0,0.0,0.083430044,0.0003676278,0.99651355,0.98353225,0.16085452,-0.08240256,0.16032405,-0.9869781,-0.013058503,0.16896955652236934,-0.2496350690562278,-0.03374986114502043,0.36063626,-0.28038797,-0.16396351,0.027832031
0.0,0.0,0.0,0.083430044,0.0003676278,0.99651355,0.98353225,0.16085452,-0.08240256,0.16032405,-0.9869781,-0.013058503,0.15460434656143185,-0.15147280098982155,0.0069515670776354455,0.36063626,-0.28038797,-0.16396351,0.027893066
0.0,0.0,0.0,0.083430044,0.0003676278,0.99651355,0.98353225,0.16085452,-0.08240256,0.16032405,-0.9869781,-0.013058503,0.2312187996864319,-0.16823221261091528,0.0237109786987304,0.36438707,-0.28038797,-0.16396351,0.027832031
0.0,0.0,0.0,0.083430044,0.0003676278,0.99651355,0.98353225,0.16085452,-0.08240256,0.16032405,-0.9869781,-0.013058503,0.2120651864051818,-0.17541481759138405,-0.019384651184083168,0.3675957,-0.28038797,-0.16396351,0.027893066
0.0,0.0,0.0,0.083430044,0.0003676278,0.99651355,0.98353225,0.16085452,-0.08240256,0.16032405,-0.9869781,-0.013058503,0.18812316980361932,-0.19935683419294653,0.04525879364013541,0.3675957,-0.28347266,-0.16396351,0.027893066
0.0,0.0,0.0,0.083430044,0.0003676278,0.99651355,0.98353225,0.16085452,-0.08240256,0.16032405,-0.9869781,-0.013058503,0.21445938806533804,-0.13950179268904028,0.030893583679198144,0.37084213,-0.28347266,-0.16396351,0.027893066
0.0,0.0,0.0,0.083430044,0.0003676278,0.99651355,0.98353225,0.16085452,-0.08240256,0.16032405,-0.9869781,-0.013058503,0.0923551033973693,-0.2065394391734153,-0.021778852844239083,0.37084213,-0.28673422,-0.16396351,0.027893066
0.0,0.0,0.0,0.083430044,0.0003676278,0.99651355,0.98353225,0.16085452,-0.08240256,0.16032405,-0.9869781,-0.013058503,0.1569985482215881,-0.18499162423200904,-0.03374986114502043,0.37084213,-0.28673422,-0.16396351,0.027832031
0.0,0.0,0.0,0.083430044,0.0003676278,0.99651355,0.98353225,0.16085452,-0.08240256,0.16032405,-0.9869781,-0.013058503,0.12108552331924438,-0.2209046491343528,-0.04572086944580178,0.37084213,-0.29037288,-0.16396351,0.027954102
0.0,0.0,0.0,0.083430044,0.0003676278,0.99651355,0.98353225,0.16085452,-0.08240256,0.16032405,-0.9869781,-0.013058503,0.2120651864051818,-0.2065394391734153,0.002163163757323616,0.3739953,-0.29358673,-0.16396351,0.027893066
0.0,0.0,0.0,0.083430044,0.0003676278,0.99651355,0.98353225,0.16085452,-0.08240256,0.16032405,-0.9869781,-0.013058503,0.1522101449012756,-0.1347133893687278,0.033287785339355835,0.3739953,-0.29358673,-0.16396351,0.028198242
0.0,0.0,0.0,0.083430044,0.0003676278,0.99651355,0.98353225,0.16085452,-0.08240256,0.16032405,-0.9869781,-0.013058503,0.1522101449012756,-0.22329885079450904,-0.03374986114502043,0.3739953,-0.29731566,-0.16396351,0.028442383
0.0,0.0,0.0,0.083430044,0.0003676278,0.99651355,0.98353225,0.16085452,-0.08240256,0.16032405,-0.9869781,-0.013058503,0.18812316980361932,-0.1490785993296653,0.0069515670776354455,0.3739953,-0.29731566,-0.16396351,0.028381348
0.0,0.0,0.0,0.083430044,0.0003676278,0.99651355,0.98353225,0.16085452,-0.08240256,0.16032405,-0.9869781,-0.013058503,0.13545073328018187,-0.16583801095075903,0.02849938201904223,0.3739953,-0.29731566,-0.16396351,0.028442383
0.0,0.0,0.0,0.083430044,0.0003676278,0.99651355,0.98353225,0.16085452,-0.08240256,0.16032405,-0.9869781,-0.013058503,0.2120651864051818,-0.2161162458140403,0.021316777038574486,0.37719592,-0.30084166,-0.16396351,0.028747559
0.0,0.0,0.0,0.083430044,0.0003676278,0.99651355,0.98353225,0.16085452,-0.08240256,0.16032405,-0.9869781,-0.013058503,0.1617869515419006,-0.2113278424937278,0.011739970397949051,0.37719592,-0.3041272,-0.16396351,0.028015137
0.0,0.0,0.0,0.083430044,0.0003676278,0.99651355,0.98353225,0.16085452,-0.08240256,0.16032405,-0.9869781,-0.013058503,0.21924779138565054,-0.11795397774763405,-0.0936049026489254,0.38047674,-0.3041272,-0.16396351,0.027893066
0.0,0.0,0.0,0.083430044,0.0003676278,0.99651355,0.98353225,0.16085452,-0.08240256,0.16032405,-0.9869781,-0.013058503,0.19051737146377556,-0.15147280098982155,-0.048115071105957696,0.38047674,-0.3041272,-0.16396351,0.027893066
0.0,0.0,0.0,0.083430044,0.0003676278,0.99651355,0.98353225,0.16085452,-0.08240256,0.16032405,-0.9869781,-0.013058503,0.1522101449012756,-0.18978002755232154,-0.019384651184083168,0.38047674,-0.3041272,-0.16396351,0.027893066
0.0,0.0,0.0,0.083430044,0.0003676278,0.99651355,0.98353225,0.16085452,-0.08240256,0.16032405,-0.9869781,-0.013058503,0.13784493494033812,-0.1778090192515403,-0.014596247863769563,0.38047674,-0.3041272,-0.16396351,0.027770996
0.0,0.0,0.0,0.083430044,0.0003676278,0.99651355,0.98353225,0.16085452,-0.08240256,0.16032405,-0.9869781,-0.013058503,0.17136375818252558,-0.1251365827281028,-0.014596247863769563,0.38047674,-0.3041272,-0.16396351,0.027770996
0.0,0.0,0.0,0.083430044,0.0003676278,0.99651355,0.98353225,0.16085452,-0.08240256,0.16032405,-0.9869781,-0.013058503,0.19530577478408806,-0.16104960763044654,0.002163163757323616,0.38047674,-0.3041272,-0.16396351,0.027832031
0.0,0.0,0.0,0.083430044,0.0003676278,0.99651355,0.98353225,0.16085452,-0.08240256,0.16032405,-0.9869781,-0.013058503,0.1976999764442443,-0.24245246407575904,-0.002625239562988213,0.38047674,-0.30818772,-0.16396351,0.027832031
0.0,0.0,0.0,0.083430044,0.0003676278,0.99651355,0.98353225,0.16085452,-0.08240256,0.16032405,-0.9869781,-0.013058503,0.18812316980361932,-0.1873858258921653,0.042864591979979494,0.38047674,-0.30818772,-0.16396351,0.027832031
0.0,0.0,0.0,0.083430044,0.0003676278,0.99651355,0.98353225,0.16085452,-0.08240256,0.16032405,-0.9869781,-0.013058503,0.17136375818252558,-0.18020322091169655,-0.10557591094970675,0.38047674,-0.30818772,-0.16396351,0.027832031
0.0,0.0,0.0,0.083430044,0.0003676278,0.99651355,0.98353225,0.16085452,-0.08240256,0.16032405,-0.9869781,-0.013058503,0.2120651864051818,-0.17541481759138405,-0.005019441223144128,0.38345456,-0.30818772,-0.16396351,0.027832031
0.0,0.0,0.0,0.083430044,0.0003676278,0.99651355,0.98353225,0.16085452,-0.08240256,0.16032405,-0.9869781,-0.013058503,0.17615216150283808,-0.20893364083357155,-0.014596247863769563,0.38345456,-0.31127158,-0.16396351,0.027893066
0.0,0.0,0.0,0.083430044,0.0003676278,0.99651355,0.98353225,0.16085452,-0.08240256,0.16032405,-0.9869781,-0.013058503,0.20488258142471305,-0.16583801095075903,-0.024173054504394997,0.38345456,-0.31127158,-0.16396351,0.027893066
0.0,0.0,0.0,0.083430044,0.0003676278,0.99651355,0.98353225,0.16085452,-0.08240256,0.16032405,-0.9869781,-0.013058503,0.18094056482315057,-0.20175103585310278,-0.04572086944580178,0.38345456,-0.31413132,-0.16396351,0.027893066
0.0,0.0,0.0,0.083430044,0.0003676278,0.99651355,0.98353225,0.16085452,-0.08240256,0.16032405,-0.9869781,-0.013058503,0.18094056482315057,-0.21851044747419654,-0.019384651184083168,0.38345456,-0.31744188,-0.16396351,0.027893066
0.0,0.0,0.0,0.083430044,0.0003676278,0.99651355,0.98353225,0.16085452,-0.08240256,0.16032405,-0.9869781,-0.013058503,0.17854636316299433,-0.21372204415388404,-0.048115071105957696,0.38345456,-0.320603,-0.16396351,0.027893066
0.0,0.0,0.0,0.083430044,0.0003676278,0.99651355,0.98353225,0.16085452,-0.08240256,0.16032405,-0.9869781,-0.013058503,0.20488258142471305,-0.19935683419294653,0.009345768737793136,0.38345456,-0.320603,-0.16396351,0.027893066
0.0,0.0,0.0,0.083430044,0.0003676278,0.99651355,0.98353225,0.16085452,-0.08240256,0.16032405,-0.9869781,-0.013058503,0.1474217415809631,-0.15147280098982155,-0.016990449523925477,0.38345456,-0.320603,-0.16396351,0.027893066
0.0,0.0,-0.08944213,0.08342885,0.0005780464,0.99651355,0.9831234,0.16333458,-0.08240256,0.16281281,-0.9865706,-0.013058503,0.020538888359069807,-0.8068254467062652,0.050047196960449014,0.38345456,-0.3404026,-0.16396351,0.028198242
-0.021471545,0.0,-0.28262743,0.08342394,0.000640239,0.9965139,0.9817755,0.17129958,-0.08230016,0.17075516,-0.9852188,-0.013661893,0.12353009090423583,0.08809299240484833,0.06919794921874889,0.38345456,-0.33493572,-0.16396351,0.028503418
0.0,-0.025544427,0.04019187,0.08414705,0.00054466486,0.99645317,0.98191035,0.17017959,-0.08301198,0.16962126,-0.98541296,-0.0137852775,0.24924672422409055,0.4144927403703332,0.07688123321533169,0.38746116,-0.32030213,-0.16099985,0.028381348
-0.021071851,-0.069377504,0.08202648,0.08610506,-0.00024768116,0.996286,0.9821382,0.16794841,-0.084840566,0.1673037,-0.9857958,-0.014704444,-0.2936278771400452,-1.7624836789920926,0.1907867706298827,0.37614164,-0.3671174,-0.15484764,0.028320312
-0.0285328,-0.05498853,-0.023226203,0.08768363,-0.0010084198,0.9961478,0.9818901,0.16867581,-0.08625787,0.16793913,-0.9856711,-0.015780244,-0.3425613578796387,0.26689151154905555,-0.06664736785888792,0.36328188,-0.3563306,-0.15484764,0.028808594
-0.07449758,-0.07630553,-0.020428346,0.08980942,-0.0030320345,0.9959543,0.9816077,0.16941789,-0.087999955,0.16846573,-0.9855397,-0.01819157,-0.7838691288948059,0.08007571895122528,0.43294302825927744,0.33859128,-0.35111225,-0.14206435,0.027954102
-0.14164612,-0.05139129,0.10627457,0.09121869,-0.007225842,0.9958046,0.9819786,0.16686226,-0.088741384,0.16552107,-0.98595375,-0.02231656,-0.5776208160400391,0.5384411285817623,-0.5091374176025392,0.319843,-0.33324918,-0.15548943,0.027832031
0.1497306,0.0,0.31984425,0.09116922,-0.003887691,0.9958278,0.9834235,0.15774292,-0.08941777,0.15673722,-0.9874726,-0.018204525,-1.4080007983207703,-0.11158532226085663,0.6805900726318352,0.27819285,-0.33324918,-0.13590041,0.027832031
0.13400932,-0.12719986,0.1840816,0.09469798,-0.0006359916,0.9955058,0.9838961,0.15233849,-0.09349628,0.15159446,-0.9883282,-0.015051876,-0.7523653232574463,-1.2828346543841063,0.17088690032958986,0.25480527,-0.3660539,-0.1305009,0.027954102
0.0,0.05039738,0.13092233,0.093292445,-0.0009799981,0.99563825,0.9845778,0.14873634,-0.092109665,0.1479974,-0.98887646,-0.014840841,-0.7527431089401245,-0.45399761788249016,0.2128896194458001,0.23152411,-0.37564108,-0.12396011,0.027954102
-0.09075179,-0.03153983,0.04005864,0.09416384,-0.0035991808,0.9955502,0.98466206,0.14787185,-0.09259939,0.14688063,-0.989,-0.017468138,-1.0735709525108337,-0.27198234913647173,0.4817669052124014,0.19957587,-0.3800981,-0.11003446,0.027832031
0.046742853,-0.12533462,0.0,0.097666524,-0.0022928747,0.99521655,0.98432976,0.14774793,-0.096257746,0.14682053,-0.98902243,-0.01668695,-0.8343115127563476,0.00933547147512436,-0.10445439910888688,0.17419243,-0.37671292,-0.11003446,0.028076172
0.066994,0.0,-0.025091441,0.097667456,-0.00032681506,0.99521905,0.98422414,0.14826669,-0.09653977,0.14752632,-0.9889474,-0.014802468,-0.4751889527320862,-0.4569910558491945,-0.4588172256469729,0.1587697,-0.38649786,-0.12248112,0.028442383
-0.051048882,0.10368987,-0.062662646,0.09473366,-0.0016005787,0.99550134,0.9842383,0.15015878,-0.09342043,0.14933378,-0.98866063,-0.01580042,-0.44380757722854614,-0.27410217459499836,-0.5305769927978519,0.14431219,-0.3910581,-0.13689636,0.028442383
0.049007785,0.20214775,0.0,0.08900839,-0.00021256995,0.9960308,0.9847598,0.15003236,-0.08796916,0.14941819,-0.9886811,-0.013563448,-0.5737548725128174,0.13343442852422593,-0.10398947601318476,0.12624943,-0.38406214,-0.13689636,0.028442383
0.14560042,0.15698236,-0.026556984,0.084577955,0.0039606085,0.99640894,0.98502946,0.1504181,-0.084209934,0.15021151,-0.98861456,-0.008820719,-0.26906079807281497,-0.13801309478878976,-0.08077177276611458,0.11694001,-0.38406214,-0.13689636,0.028320312
0.31187302,0.13633153,-0.02282651,0.080774754,0.012701442,0.9966514,0.9852499,0.15032323,-0.08176644,0.15085845,-0.9885554,0.00037179425,-0.15149967336654668,0.4363244803786277,-0.4179598602294927,0.111066796,-0.36879244,-0.14784189,0.027954102
0.11682248,0.15724882,0.0,0.07639304,0.015956687,0.99695003,0.9856009,0.15006247,-0.07792521,0.15084825,-0.9885478,0.0042632176,0.13363893327713006,0.04794984340667724,-0.5688637039184572,0.111066796,-0.3644015,-0.16292998,0.027954102
0.0,0.20587823,-0.024425285,0.070643276,0.016006885,0.99737316,0.9859303,0.15073554,-0.072251946,0.15149616,-0.98844457,0.0051332423,0.21218918256759634,-0.04344386334419251,-0.024081018066405946,0.115328275,-0.3644015,-0.16292998,0.027954102
0.13107823,0.092764914,-0.03574994,0.06803891,0.01973096,0.9974875,0.98596406,0.15145978,-0.070248865,0.15246536,-0.9882665,0.009148881,0.35577504081726063,-0.40456090142726897,-0.10403285675048934,0.123562194,-0.3726279,-0.16292998,0.027954102
0.17171375,0.08183996,-0.086244576,0.06570329,0.024680374,0.99753386,0.9857554,0.15350306,-0.06872536,0.15482071,-0.98783994,0.014243182,0.10210092840194696,-0.40707784974575045,-0.6502932586669923,0.123562194,-0.38088322,-0.18019782,0.027954102
-0.03292943,0.12620595,-0.03281885,0.062161315,0.023820667,0.99778175,0.9858502,0.15446906,-0.065105714,0.1556773,-0.9877105,0.013881635,0.40425507469177235,-0.11986516542434693,-0.02266385345459021,0.1330977,-0.38088322,-0.18019782,0.027954102
0.0,0.102091104,-0.1724452,0.059210923,0.024111932,0.9979542,0.9852785,0.15919931,-0.062305305,0.16037595,-0.986952,0.014330655,0.545906638431549,-0.14860382339954376,0.13871993103027336,0.14646682,-0.38088322,-0.17545561,0.027832031
-0.030264806,-0.06964397,-0.13087705,0.061058506,0.023490407,0.9978577,0.9845695,0.16284022,-0.06407879,0.16399662,-0.9863728,0.013185183,0.482783187675476,-0.45472351822853085,1.1714171646118157,0.15802103,-0.3903746,-0.14213878,0.027832031
-0.12632453,-0.21380016,0.030465987,0.06701382,0.019928265,0.997553,0.98431027,0.16224006,-0.06936529,0.1632254,-0.9865501,0.008743294,0.6228040369987486,0.2689765215158462,-0.027958183288575356,0.17339505,-0.3797772,-0.14213878,0.027832031
-0.0349279,-0.34849697,0.07283352,0.076768264,0.018808212,0.99687153,0.98391694,0.16030869,-0.07879522,0.16128919,-0.98688775,0.0061991215,0.4705205978393554,-0.11443403942584993,0.03033425598144568,0.18452364,-0.3797772,-0.14213878,0.027954102
-0.22158487,-0.041532174,0.021939186,0.07793018,0.012613034,0.996879,0.9839236,0.1601943,-0.07894426,0.16069008,-0.98700494,-7.368578e-05,0.6237424798965454,-4.222062739610672,-0.11816728210449234,0.19979139,-0.4936022,-0.14213878,0.027832031
0.083381444,0.06465312,-0.14233494,0.07604044,0.015289008,0.99698746,0.98341125,0.163991,-0.077519804,0.16468221,-0.9863434,0.0025654566,0.991277215385437,-0.6480440271615981,0.25922108001709,0.22571723,-0.50819635,-0.13407132,0.028442383
-0.15683448,0.096895084,-0.11901946,0.07328364,0.011147838,0.99724877,0.98306346,0.16761048,-0.07411486,0.1679756,-0.9857903,-0.0013240522,1.0116218876838683,-0.2140548129916191,-0.5162613601684578,0.25174966,-0.50819635,-0.14781126,0.028076172
-0.034261744,0.03241116,-0.05626755,0.0723632,0.0103072245,0.997325,0.9828652,0.16922708,-0.073062964,0.16952752,-0.9855232,-0.0021151789,1.213144304180145,0.5063509037971496,0.5485299072265626,0.2831445,-0.49034855,-0.13180661,0.027954102
-0.11273494,0.0,-0.033485007,0.07235502,0.007245359,0.99735254,0.98270696,0.1703714,-0.072530195,0.1704459,-0.9853533,-0.00520714,1.2395479948997496,-0.08370379039645195,-0.5650008392333987,0.31497717,-0.49034855,-0.14678839,0.027832031
-0.107805386,0.0,-0.05000568,0.07234695,0.004353521,0.99736995,0.9824688,0.1719558,-0.072016634,0.17181711,-0.9850951,-0.008163257,1.6155042339324952,-0.6488247002899646,0.0645311462402347,0.35706198,-0.50466436,-0.14678839,0.027832031
-0.1488406,0.0,-0.02295974,0.07234547,0.0002680719,0.99737954,0.98235863,0.17288043,-0.071302384,0.17244655,-0.9849428,-0.012243751,1.593968578338623,-0.5193586913790553,0.030932214355468446,0.39834,-0.51532334,-0.14678839,0.027832031
-0.024002938,0.0,0.11253643,0.0723449,-0.00063265633,0.9973794,0.9829,0.16982372,-0.07118691,0.16933368,-0.9854743,-0.012907696,1.5556660605430603,-0.07618452800288796,-0.09595951995849639,0.43870187,-0.51532334,-0.14678839,0.028076172
0.024892926,0.0,0.0275349,0.07234466,1.6845297e-05,0.99737966,0.9830327,0.16900346,-0.071306854,0.16856185,-0.9856155,-0.0122099165,0.925992990875244,-0.3712402021103771,-0.03371123046875013,0.4615659,-0.5219783,-0.14678839,0.028442383
0.0,0.0,-0.10916035,0.07234426,0.00024145951,0.99737966,0.98250324,0.17205474,-0.071306854,0.17162116,-0.9850874,-0.0122099165,0.9834571685791014,-0.006780029661208391,0.06923944091796841,0.4859419,-0.51828575,-0.14678839,0.028442383
0.0,0.0,-0.054668773,0.0723438,0.00035394804,0.99737966,0.98223454,0.17358224,-0.071306854,0.17315267,-0.98481935,-0.0122099165,0.3082961151123046,0.08327179609201849,-0.06244165039062466,0.4910888,-0.51206315,-0.14678839,0.028442383
0.0,0.0,0.0,0.0723438,0.00035394804,0.99737966,0.98223454,0.17358224,-0.071306854,0.17315267,-0.98481935,-0.0122099165,0.22449905700683592,-0.2902236628923565,0.02135540771484301,0.4910888,-0.51642287,-0.14678839,0.028320312
0.0,0.0,0.0,0.0723438,0.00035394804,0.99737966,0.98223454,0.17358224,-0.071306854,0.17315267,-0.98481935,-0.0122099165,0.2843540985107421,-0.25909904131032524,-0.04568223876953148,0.49542361,-0.5198241,-0.14678839,0.027832031
0.0,0.0,0.0,0.0723438,0.00035394804,0.99737966,0.98223454,0.17358224,-0.071306854,0.17315267,-0.98481935,-0.0122099165,0.2628062835693359,-0.2614932429704815,-0.026528625488282387,0.49914002,-0.5232746,-0.14678839,0.027832031
0.0,0.0,0.0,0.0723438,0.00035394804,0.99737966,0.98223454,0.17358224,-0.071306854,0.17315267,-0.98481935,-0.0122099165,0.2628062835693359,-0.20403240312673152,-0.04089383544921965,0.50283784,-0.5232746,-0.14678839,0.027832031
0.0,0.0,0.0,0.0723438,0.00035394804,0.99737966,0.98223454,0.17358224,-0.071306854,0.17315267,-0.98481935,-0.0122099165,0.2388642669677734,-0.1848787898454815,0.026143811035156617,0.50586736,-0.5232746,-0.14678839,0.027954102
0.0,0.0,0.0,0.0723438,0.00035394804,0.99737966,0.98223454,0.17358224,-0.071306854,0.17315267,-0.98481935,-0.0122099165,0.21252804870605468,-0.22558021806813774,-0.060047448730468744,0.50586736,-0.5232746,-0.14678839,0.027832031
0.0,0.0,0.0,0.0723438,0.00035394804,0.99737966,0.98223454,0.17358224,-0.071306854,0.17315267,-0.98481935,-0.0122099165,0.13112519226074215,-0.2231860164079815,0.042903222656249795,0.50586736,-0.5232746,-0.14678839,0.027832031
0.0,0.0,0.0,0.0723438,0.00035394804,0.99737966,0.98223454,0.17358224,-0.071306854,0.17315267,-0.98481935,-0.0122099165,0.1790092254638671,-0.227974419728294,-0.009769213867187432,0.50586736,-0.5232746,-0.14678839,0.028198242
0.0,0.0,0.0,0.0723438,0.00035394804,0.99737966,0.98223454,0.17358224,-0.071306854,0.17315267,-0.98481935,-0.0122099165,0.2340758636474609,-0.208820806447044,0.014172802734375267,0.5087804,-0.5232746,-0.14678839,0.028442383
0.0,0.0,0.0,0.0723438,0.00035394804,0.99737966,0.98223454,0.17358224,-0.071306854,0.17315267,-0.98481935,-0.0122099165,0.27717149353027337,-0.2423396296892315,0.014172802734375267,0.51289856,-0.52617824,-0.14678839,0.028442383
0.0,0.0,0.0,0.0723438,0.00035394804,0.99737966,0.98223454,0.17358224,-0.071306854,0.17315267,-0.98481935,-0.0122099165,0.2628062835693359,-0.227974419728294,-0.019346020507812867,0.5165737,-0.52617824,-0.14678839,0.028320312
0.0,0.0,0.0,0.0723438,0.00035394804,0.99737966,0.98223454,0.17358224,-0.071306854,0.17315267,-0.98481935,-0.0122099165,0.25083527526855465,-0.21600341142751275,0.05248002929687523,0.51987886,-0.52617824,-0.14678839,0.028198242
0.0,0.0,0.0,0.0723438,0.00035394804,0.99737966,0.98223454,0.17358224,-0.071306854,0.17315267,-0.98481935,-0.0122099165,0.22210485534667967,-0.24952223466970025,0.047691625976561625,0.51987886,-0.52918166,-0.14678839,0.027832031
0.0,0.0,0.0,0.0723438,0.00035394804,0.99737966,0.98223454,0.17358224,-0.071306854,0.17315267,-0.98481935,-0.0122099165,0.2436526702880859,-0.2614932429704815,-0.038499633789063736,0.52291363,-0.5325016,-0.14678839,0.027832031
0.0,0.0,0.0,0.0723438,0.00035394804,0.99737966,0.98223454,0.17358224,-0.071306854,0.17315267,-0.98481935,-0.0122099165,0.1933744354248046,-0.22079181474782525,-0.03371123046875013,0.52291363,-0.5325016,-0.14678839,0.028442383
0.0,0.0,0.0,0.0723438,0.00035394804,0.99737966,0.98223454,0.17358224,-0.071306854,0.17315267,-0.98481935,-0.0122099165,0.23647006530761716,-0.208820806447044,-0.052864843750001,0.5257262,-0.5325016,-0.14678839,0.027832031
0.0,0.0,-0.028955147,0.07234349,0.0004122484,0.99737966,0.98209435,0.17437375,-0.071306854,0.17394626,-0.9846795,-0.0122099165,0.2795681985855102,-0.8461593257497996,0.04529742431640571,0.52971816,-0.55197597,-0.14678839,0.027832031
0.0,0.0,-0.21761058,0.07233969,0.0008484707,0.99737966,0.9810249,0.18029258,-0.07130685,0.1798807,-0.9836127,-0.0122099165,0.33945459213256834,0.043279808116704226,-0.03371123046875013,0.5353239,-0.5467449,-0.14678839,0.027709961
0.0,-0.024078883,-0.19229665,0.07300541,0.0012391234,0.9973307,0.97999346,0.18556334,-0.07196684,0.18515722,-0.98263156,-0.012332772,0.26453172569274896,-0.13711332832723855,0.05048923187255738,0.5388669,-0.5467449,-0.14678839,0.027954102
0.0,-0.06591349,-0.077051625,0.07487212,0.0014011629,0.9971921,0.9794478,0.18771043,-0.07380357,0.18728681,-0.98222345,-0.01268189,0.44545907077789293,0.08660507925003766,-0.020193362426757844,0.547574,-0.54017746,-0.14678839,0.028442383
0.0,-0.02914167,-0.15379283,0.075688265,0.0017290445,0.99713,0.9785597,0.19197446,-0.074611545,0.19155253,-0.98139846,-0.012838219,0.960663224506378,-0.10284711041599512,0.08566363372802677,0.5707181,-0.54017746,-0.14370166,0.028320312
0.056202266,-0.07031012,-0.119152695,0.07766466,0.0035747658,0.9969731,0.97775567,0.19515467,-0.07686736,0.19483873,-0.98076594,-0.01166135,1.2340598146438597,0.43498944190740585,-0.4924390319824221,0.6014505,-0.52385974,-0.15692055,0.028320312
0.1266816,0.16164547,-0.20588624,0.073087156,0.0075744013,0.99729675,0.9769488,0.20056102,-0.07311919,0.20057268,-0.9796519,-0.007258609,2.9214212611198422,-0.3497800034582615,-0.15752593231201217,0.67924017,-0.5297121,-0.16061991,0.028198242
-0.11233525,0.34923506,-0.3960072,0.0632764,0.005196224,0.99798244,0.97533166,0.21158117,-0.06294189,0.21148138,-0.97734666,-0.008320038,1.9919900488853455,-0.8880131128549575,0.540713113403319,0.7301192,-0.55045533,-0.14484785,0.027954102
-0.14337812,0.28821513,-0.46488777,0.05522209,0.0019792102,0.9984721,0.9729809,0.22442019,-0.054257113,0.2241847,-0.9744905,-0.01046721,1.785485294008255,-0.5286842416286468,1.0705812728881838,0.7748041,-0.5610539,-0.114549614,0.027832031
-0.054113198,0.17643413,-0.40919712,0.05030084,0.0010760892,0.9987335,0.9706153,0.2355661,-0.04913849,0.23532064,-0.9718578,-0.010804698,1.241892014312744,-0.28420907875895496,0.8601304244995109,0.8042119,-0.56482923,-0.09023086,0.027832031
0.15452692,0.058924183,-0.3233962,0.048624404,0.005837701,0.99880004,0.9685275,0.24412043,-0.048577465,0.24411109,-0.9697274,-0.0062162313,1.4831688535690306,0.516880583012104,0.36398136444091733,0.84031194,-0.5463204,-0.07972762,0.027954102
0.27017164,-0.1350605,-0.21494596,0.05233632,0.013683572,0.99853575,0.9668505,0.24954735,-0.054095306,0.24992217,-0.96826595,0.00016958686,1.986458914518356,0.6867973849534988,0.11955869293212906,0.8902302,-0.523178,-0.07607535,0.027954102
0.49533245,-0.44349083,-0.25211748,0.06451075,0.027853888,0.9975282,0.96431565,0.25547147,-0.06949637,0.2567757,-0.96641535,0.010379305,1.385652646923065,-0.4691668951511383,-0.31266314086914093,0.92304385,-0.5322638,-0.08442668,0.027832031
0.50825584,-0.5696608,-0.32379588,0.07999793,0.04260619,0.99588406,0.9607269,0.26302966,-0.08842679,0.2657145,-0.9638465,0.019891132,1.3752259397506714,0.2519109354496002,-0.8832870971679689,0.95540476,-0.5213355,-0.10853846,0.027832031
0.46029264,-0.68517226,-0.06612666,0.09887913,0.055515707,0.9935497,0.95834905,0.26352403,-0.110100605,0.26793644,-0.96305406,0.027146453,0.9321842212677001,-0.5273410745620728,-0.622218998718262,0.97533476,-0.53204155,-0.12529996,0.027832031
0.22154222,-0.62361944,-0.06839159,0.11599422,0.061840083,0.991323,0.95577693,0.26461077,-0.12834176,0.2702513,-0.9623705,0.028412066,1.4230833154678342,0.0429860872268677,-1.3340836914062502,1.0087595,-0.52690005,-0.16169123,0.027832031
-0.16016527,-0.3063959,0.043389417,0.12451673,0.057277404,0.990563,0.95497197,0.26404467,-0.1353107,0.26930302,-0.96280825,0.021820396,1.3719408796310422,-0.3814605498790741,-0.5018156173706059,1.0406008,-0.5335384,-0.17485265,0.027832031
-0.10007797,-0.25297016,-0.16338548,0.13123296,0.055100802,0.98981917,0.9527868,0.2687676,-0.14128472,0.27381614,-0.9616278,0.01722821,1.1585262979507447,-0.3132290085792542,0.25849479980468715,1.0663729,-0.538254,-0.1668931,0.027832031
0.16451927,-0.1862213,0.031531837,0.1364337,0.059532847,0.9888589,0.95227146,0.26726398,-0.14747593,0.27306592,-0.9617827,0.02022768,0.8355074792861936,0.8137961583137512,0.374153186035155,1.083144,-0.5116192,-0.15572163,0.027954102
0.021029223,-0.13519374,0.11906476,0.14035097,0.059652843,0.98830324,0.9525898,0.26402038,-0.15121515,0.2699525,-0.96267074,0.019769242,1.0545879293441773,0.9301223045349121,-0.5789441192626956,1.1058253,-0.4820119,-0.17104857,0.027832031
0.08937685,0.29141268,0.38246292,0.13297133,0.060657803,0.98926204,0.956542,0.2534915,-0.14411639,0.25951117,-0.965434,0.024314709,1.345300624847412,-0.13400984554290774,0.08112932281494167,1.136444,-0.4820119,-0.16801953,0.027832031
0.0,0.40838972,0.28014132,0.121950604,0.059642155,0.9907427,0.9601409,0.24585515,-0.13298415,0.25151053,-0.96747,0.027282763,0.6916061178207396,-0.3267453521728516,0.4328361755371084,1.1490779,-0.48747614,-0.15498619,0.028442383
0.26790673,0.21227333,0.29826078,0.11659477,0.06606861,0.99097973,0.96293086,0.23685655,-0.12908585,0.24324843,-0.9692956,0.03600335,0.6280434428215025,-0.04456436481475834,0.4069391265869129,1.159665,-0.48747614,-0.14296095,0.027954102
0.09723748,0.0,0.31065127,0.11717581,0.06774704,0.9907979,0.9649499,0.2281338,-0.12971783,0.23482236,-0.97127,0.03864082,0.7285957448005675,0.22889570198059073,-0.5947312393188477,1.1729959,-0.47737744,-0.15885663,0.027954102
-0.13285287,0.12713858,0.32450733,0.11425922,0.063037045,0.9914492,0.96742463,0.21987905,-0.12547055,0.22590807,-0.9734884,0.035860464,0.3312731044769286,0.17197698936462402,-0.17154118957519593,1.1729959,-0.46894935,-0.16288441,0.027832031
-0.23677324,0.12780473,0.29919338,0.11122487,0.055561848,0.992241,0.9696631,0.21262439,-0.12060015,0.21767528,-0.9755531,0.03022724,0.8686604289054869,-0.8892460412979126,-0.34327281951904354,1.19007,-0.4899517,-0.1716478,0.027832031
-0.18707798,0.2671646,0.23257777,0.10418329,0.049695324,0.99331594,0.971887,0.20694658,-0.11228916,0.21114345,-0.97708935,0.026737953,0.6801386291503906,-0.12259679388999939,-0.3904463562011724,1.201838,-0.4899517,-0.18167375,0.027832031
-0.100344434,0.21746936,0.23457624,0.09848197,0.04625851,0.99406326,0.9738785,0.20089933,-0.10583102,0.2046021,-0.97851914,0.025265293,-0.4172636666297913,0.5354260329723357,-0.3271781051635747,1.183157,-0.47139746,-0.18989749,0.027832031
-0.18547921,-0.08016923,0.2220525,0.10096816,0.040510472,0.9940647,0.9748658,0.19542675,-0.10698216,0.1986006,-0.9798813,0.01976048,-0.6340950615882874,-0.07556801156997683,0.7789306640625,1.1585647,-0.47139746,-0.16744879,0.027832031
0.14813182,-0.4685383,0.09628222,0.114035144,0.04431767,0.9924879,0.97390217,0.1923466,-0.1204885,0.19624132,-0.9803259,0.021226887,-0.25585228309631347,-0.6097531865119934,0.009032931518554221,1.14457,-0.484657,-0.16744879,0.027832031
0.5622145,-0.3311769,0.24416889,0.1235265,0.05902699,0.9905844,0.9740146,0.18374844,-0.13240941,0.18983391,-0.9811995,0.034795422,-0.23118897476196298,0.6312209625720977,-0.851544535827637,1.1313282,-0.46348408,-0.19026995,0.027832031
0.3591701,-0.1333285,0.3738029,0.12787853,0.06765416,0.98947984,0.9753708,0.17220628,-0.13782941,0.17971922,-0.982735,0.04396648,-1.0021056625366211,0.5576673683166504,0.48395363464355334,1.0966524,-0.44437048,-0.1759306,0.027954102
-0.10820508,-0.1990115,0.25762525,0.13388094,0.06370218,0.98894805,0.97580844,0.16557577,-0.1427675,0.17284031,-0.9841376,0.039993763,-0.5655923700332642,-0.3291090042114258,0.3255348236083986,1.0741936,-0.45004222,-0.1660262,0.028076172
-0.12672423,-0.026077352,0.29253182,0.13512506,0.059018254,0.98906946,0.9770485,0.15796627,-0.14290865,0.16467372,-0.98567927,0.036318574,-0.6045845640182496,-0.9297264876365661,-0.02262577514648534,1.0504521,-0.47275677,-0.1660262,0.028442383
0.17651008,0.23532233,0.29386413,0.12903854,0.06286478,0.98964506,0.97925967,0.14912546,-0.13715719,0.15620351,-0.986818,0.04231809,-0.5328334257125855,-1.2726998982429505,0.09712436676025327,1.0289526,-0.5049253,-0.16252258,0.028320312
0.043811765,0.39519984,0.3439591,0.11856683,0.06288754,0.99095273,0.9821398,0.13940841,-0.12635942,0.14609346,-0.9882361,0.045235224,-0.9755784250259399,0.1899695614814758,-0.15068765411377072,0.9950846,-0.49571687,-0.16601951,0.028320312
-0.2763429,0.24531469,0.2518963,0.11212372,0.05434113,0.9922074,0.9839556,0.13337955,-0.11849609,0.13877927,-0.9895742,0.038514324,-1.0349612692832946,-0.050783462858200124,1.004940234374999,0.95986503,-0.49571687,-0.13706023,0.028198242
-0.28447,-0.09056127,0.07589784,0.114731014,0.046245255,0.9923197,0.9839357,0.13224488,-0.119924635,0.13677503,-0.99013776,0.030329842,-0.8745076565742492,-0.7118437170505523,0.25941750030517596,0.9297201,-0.51169795,-0.1292656,0.027832031
-0.030264806,-0.06031778,0.14264669,0.1165778,0.044950288,0.99216396,0.98425055,0.12843955,-0.12146691,0.13289294,-0.99069816,0.029269222,-0.626378215789795,-0.3396380246162415,-0.5700858764648444,0.9065973,-0.51729167,-0.14448129,0.027832031
0.077119574,-0.093092665,0.2104614,0.119427934,0.04639454,0.9917584,0.9846686,0.12238273,-0.12429919,0.12714079,-0.99139804,0.031067407,-0.9994404453277588,1.2262282553195953,1.1139882247924806,0.8731128,-0.47932827,-0.1128459,0.027954102
-0.07343173,-0.2472412,0.21206017,0.1265157,0.043642554,0.9910042,0.9844967,0.11683225,-0.13083002,0.121490896,-0.9921923,0.028184913,-1.0028357116699218,-0.26660221829414366,0.7084063568115226,0.83984715,-0.48306042,-0.09273787,0.027832031
0.04541054,-0.17969298,0.14837563,0.13165195,0.044361554,0.99030304,0.9843035,0.11259847,-0.13589826,0.11753516,-0.99264985,0.028841497,-0.5328417497634887,-0.4305500410079956,-0.05674254302978632,0.8197633,-0.49131408,-0.09273787,0.027832031
0.13174438,-0.06018455,0.100945316,0.13343966,0.047619626,0.9899124,0.98438585,0.109330855,-0.13795398,0.114797175,-0.99286413,0.032287087,-0.8109495254516601,-0.46221191368103026,-0.17562531585693364,0.79207826,-0.5004033,-0.09720585,0.027832031
0.10962799,-0.0527236,0.1166666,0.13505083,0.0502036,0.98956615,0.9845312,0.1057106,-0.13972665,0.11162231,-0.99312884,0.03515078,-0.6734041532516479,0.1030541535854339,-0.24938351440429773,0.76834065,-0.49379322,-0.10369406,0.027832031
0.0,-0.11374351,0.09854715,0.13832003,0.0498287,0.9891334,0.9843702,0.103010476,-0.14284316,0.109008685,-0.9934314,0.034801554,-0.630937565612793,0.0917812027931213,0.007971464538574224,0.74589777,-0.48752838,-0.10369406,0.027832031
0.17304607,-0.10588287,0.0,0.14131065,0.05471631,0.98845214,0.9839329,0.1022958,-0.14632717,0.109120876,-0.9932481,0.039381776,-0.06423725700378435,-0.7481965280532836,-0.3239919204711921,0.73908603,-0.50500435,-0.112443656,0.028564453
0.1685162,0.046400443,-0.020428346,0.13999599,0.05945278,0.98836565,0.9840638,0.10217028,-0.14553243,0.109633796,-0.99298877,0.044201978,0.11898877792358387,-0.7393802996635437,-0.17244482116699267,0.73908603,-0.5217762,-0.1167483,0.027954102
-0.03173035,0.084504575,-0.058932174,0.13754211,0.05879888,0.9887492,0.9842364,0.103934854,-0.1430951,0.11117923,-0.9928446,0.043576658,-0.1408925094604493,-0.1689551431655884,-0.4102399215698247,0.73025227,-0.5217762,-0.12774071,0.028198242
-0.19786972,0.08916767,-0.06599343,0.13493946,0.05351092,0.98940796,0.9843972,0.10656778,-0.14001963,0.112931475,-0.99286455,0.03829588,0.05774586067199694,0.11647581739425661,-0.3845493362426762,0.727022,-0.5145617,-0.13800158,0.028320312
-0.0775619,0.06878329,-0.07558608,0.13289922,0.05162386,0.9897843,0.9844371,0.108980246,-0.13786528,0.11498396,-0.9927026,0.036337133,-0.04274148368835462,-0.23666617074012758,-0.2727309127807622,0.72097623,-0.5145617,-0.14506024,0.028320312
0.0,0.03987211,-0.12901181,0.13158634,0.05210911,0.98993427,0.98418635,0.1125921,-0.13674901,0.11858453,-0.99227405,0.036469575,0.22187286415100083,-0.3938975884914398,-0.10158530883789041,0.72097623,-0.5217821,-0.14506024,0.028442383
-0.048251025,0.062254958,-0.1255478,0.12966534,0.05122445,0.9902339,0.98401964,0.11626084,-0.13486575,0.12203373,-0.991897,0.035330944,0.27363083019256584,0.07787445340156551,0.0372016189575195,0.723856,-0.5156681,-0.14506024,0.028198242
-0.0434547,0.047865987,-0.077184856,0.12823068,0.050299656,0.9904681,0.98394585,0.118546866,-0.13340652,0.12412707,-0.9916737,0.034290873,0.10111073169708251,0.23633709220886223,-0.6494731536865235,0.723856,-0.5052298,-0.16246925,0.027954102
-0.22877936,0.33870977,-0.055068467,0.118772626,0.0441505,0.9919395,0.98497695,0.12088334,-0.123319365,0.12535343,-0.9916844,0.029129673,1.390589476585388,-0.5700671555042267,-0.5107749084472664,0.75777376,-0.51727325,-0.17593342,0.027954102
-0.07956037,0.40559188,-0.056933705,0.107449204,0.042122807,0.9933179,0.98611647,0.12271347,-0.11187401,0.1266058,-0.9915478,0.028352605,0.1240817430496215,-0.3689886239528656,0.5049678985595705,0.75777376,-0.52366364,-0.16107807,0.027954102
-0.043987624,0.29887363,-0.07745132,0.099092856,0.041128762,0.99422795,0.98674536,0.12497174,-0.10351685,0.12850776,-0.9913075,0.028199883,0.26962181529998763,-0.39430826206207276,0.4950682800292956,0.75777376,-0.5306955,-0.14663568,0.027832031
0.0,0.22199923,-0.05320323,0.0928597,0.041271504,0.9948236,0.9871818,0.12643962,-0.097391896,0.12980446,-0.9911154,0.029001407,0.12471004037857047,0.10729671602249141,0.26749514923095674,0.75777376,-0.52377105,-0.13853228,0.027954102
-0.1926737,0.113415755,-0.03921395,0.08967645,0.036034994,0.99531895,0.9873444,0.12802923,-0.09359319,0.13080238,-0.99111557,0.024097815,0.26109969921112053,-0.04344141063690188,0.33044630126953045,0.75777376,-0.52377105,-0.1287613,0.027832031
-0.25888962,0.056126326,-0.06492758,0.0880555,0.028991677,0.9956937,0.9872547,0.13048954,-0.091108665,0.13256885,-0.99102575,0.017131919,0.4420638525009155,-0.1696996621131897,-0.17542690582275355,0.76512957,-0.52377105,-0.13306707,0.027954102
-0.21878701,0.08743566,-0.056800473,0.08559084,0.023064677,0.9960635,0.9872645,0.13259533,-0.087905124,0.1341007,-0.9909019,0.011422062,0.4288742066383362,-0.044197658157348635,-0.003700035095215881,0.77205133,-0.52377105,-0.13306707,0.027832031
-0.14790799,0.13673124,-0.0360164,0.08177841,0.019047322,0.9964686,0.9874573,0.13393809,-0.083599076,0.13505729,-0.9908067,0.007855245,0.47947379999160766,-0.2672409723043442,-0.49306560058593796,0.7803398,-0.5273059,-0.14613138,0.027832031
-0.17655271,0.19708496,-0.037615176,0.076269545,0.014211128,0.99698603,0.9877595,0.1353741,-0.07749335,0.13606721,-0.9906927,0.0037123258,0.35252992773056024,-0.24171587805747985,0.19698518829345701,0.78509206,-0.53012854,-0.13999407,0.027954102
-0.23437507,0.11368222,-0.08331349,0.07308893,0.007879721,0.99729437,0.98768115,0.13815685,-0.073475994,0.13836187,-0.99037904,-0.0023150123,0.381158756160736,-0.5127098742604255,-0.20538993835449304,0.79059273,-0.5404294,-0.14505704,0.027832031
-0.03745929,0.12607273,-0.07425377,0.06957373,0.006987251,0.9975524,0.9876449,0.1402727,-0.069865264,0.14041741,-0.9900883,-0.002858302,-0.06389885072708135,-0.3569080263376236,0.6256636383056637,0.783741,-0.5463642,-0.12708043,0.027832031
0.0,0.0,-0.035483476,0.069566764,0.007056258,0.9975524,0.9875053,0.1412523,-0.069865264,0.14139941,-0.9899485,-0.002858302,0.3192308737754821,0.0974210982620716,0.05105523986816429,0.78755015,-0.5396583,-0.12708043,0.027954102
0.0,0.0,-0.031086845,0.06956063,0.0071164453,0.9975524,0.9873827,0.14210664,-0.069865264,0.14225587,-0.9898258,-0.002858302,0.43180895614624015,-0.5399329829752445,-0.08541425476074238,0.7944413,-0.55066526,-0.12708043,0.027832031
0.0,0.0,-0.1315432,0.069534115,0.007371067,0.9975524,0.9868558,0.1457206,-0.069865264,0.14587879,-0.98929834,-0.002858302,0.3338653775215148,-0.5444273766458034,-0.0447128265380865,0.79858565,-0.56174165,-0.12708043,0.027832031
0.0,0.0,-0.11129205,0.069511056,0.0075854682,0.9975524,0.98640174,0.14876327,-0.069865264,0.14892901,-0.9888438,-0.0028583023,0.21913395586013784,0.34684139885902404,0.010353811645506639,0.79858565,-0.5481408,-0.12708043,0.027709961
0.0,0.024417289,-0.021094503,0.068816684,0.007626787,0.9976002,0.9863608,0.14935254,-0.06918318,0.14952166,-0.98875463,-0.0027551122,0.3709076078414917,-0.18740637581348418,-0.06426030731201138,0.8038206,-0.5481408,-0.12708043,0.028320312
0.0,0.029346846,-0.027756065,0.06799593,0.0076796315,0.99765605,0.9863013,0.15011448,-0.06837756,0.15028764,-0.9886388,-0.0026326727,0.3681006371498108,-0.20460166875123978,-0.112604965209961,0.80886185,-0.5481408,-0.12708043,0.027832031
0.0,0.030812386,0.0,0.067144096,0.0076796315,0.99771374,0.9863593,0.15011448,-0.06753542,0.15028983,-0.9886388,-0.0025043546,0.37033836975097656,-0.22375528203248976,-0.0005533706665037386,0.8139176,-0.5481408,-0.12708043,0.027709961
0.0,0.029613309,0.03792694,0.0663334,0.007609492,0.9977685,0.9865716,0.14907774,-0.06672595,0.14925274,-0.98879623,-0.0023814547,0.35547742109298697,-0.04121742572784424,-0.039312638854980264,0.8185383,-0.54528207,-0.12708043,0.027709961
-0.022537395,0.02654899,0.075231686,0.06561442,0.006848824,0.99782157,0.98692906,0.14706211,-0.06590755,0.14719304,-0.98910356,-0.0028900215,0.2919759370803833,-0.24802716878056524,0.0871423126220705,0.8213851,-0.54813963,-0.12410304,0.027709961
0.0,0.0,0.0,0.06561442,0.006848824,0.99782157,0.98692906,0.14706211,-0.06590755,0.14719304,-0.98910356,-0.0028900215,0.3590135835647582,-0.245632967120409,-0.02059676208496164,0.82606596,-0.5509169,-0.12410304,0.027709961
0.0,0.0,0.0,0.06561442,0.006848824,0.99782157,0.98692906,0.14706211,-0.06590755,0.14719304,-0.98910356,-0.0028900215,0.299158542060852,-0.21450834553837775,-0.01341415710449212,0.82908636,-0.5509169,-0.12410304,0.027832031
0.0,0.0,0.0,0.06561442,0.006848824,0.99782157,0.98692906,0.14706211,-0.06590755,0.14719304,-0.98910356,-0.0028900215,0.41168602008819577,-0.11155767415165901,-0.07326919860839887,0.8352079,-0.5509169,-0.12410304,0.027832031
0.0,0.0,0.0,0.06561442,0.006848824,0.99782157,0.98692906,0.14706211,-0.06590755,0.14719304,-0.98910356,-0.0028900215,0.3135237520217895,-0.19535473225712777,0.008133657836912889,0.83856565,-0.5509169,-0.12410304,0.027709961
0.0,0.0,0.0,0.06561442,0.006848824,0.99782157,0.98692906,0.14706211,-0.06590755,0.14719304,-0.98910356,-0.0028900215,0.308735348701477,-0.23845036213994025,-0.03735617370605482,0.8417746,-0.5509169,-0.12410304,0.027709961
0.0,0.0,0.0,0.06561442,0.006848824,0.99782157,0.98692906,0.14706211,-0.06590755,0.14719304,-0.98910356,-0.0028900215,0.33507156696319573,-0.25281557210087774,-0.10439382019042931,0.8457109,-0.5538668,-0.12410304,0.027832031
0.0,0.0,0.0,0.06561442,0.006848824,0.99782157,0.98692906,0.14706211,-0.06590755,0.14719304,-0.98910356,-0.0028900215,0.33985997028350823,-0.21929674885869024,-0.19058507995605467,0.84976006,-0.5538668,-0.12880214,0.027832031
0.0,0.0,0.0,0.06561442,0.006848824,0.99782157,0.98692906,0.14706211,-0.06590755,0.14719304,-0.98910356,-0.0028900215,0.2919759370803833,-0.23845036213994025,-0.011019955444336205,0.84976006,-0.5538668,-0.12880214,0.027832031
0.0,0.0,0.0,0.06561442,0.006848824,0.99782157,0.98692906,0.14706211,-0.06590755,0.14719304,-0.98910356,-0.0028900215,0.318312155342102,-0.22647935383915901,-0.027779367065429383,0.8531788,-0.5538668,-0.12880214,0.027832031
0.0,0.0,0.0,0.06561442,0.006848824,0.99782157,0.98692906,0.14706211,-0.06590755,0.14719304,-0.98910356,-0.0028900215,0.33507156696319573,-0.207325740557909,-0.0014431488037107698,0.8570276,-0.5538668,-0.12880214,0.027709961
0.0,0.0,0.0,0.06561442,0.006848824,0.99782157,0.98692906,0.14706211,-0.06590755,0.14719304,-0.98910356,-0.0028900215,0.3039469453811645,-0.23366195881962776,-0.09242281188964974,0.86001205,-0.5538668,-0.12880214,0.027832031
0.0,0.0,0.0,0.06561442,0.006848824,0.99782157,0.98692906,0.14706211,-0.06590755,0.14719304,-0.98910356,-0.0028900215,0.3685903902053832,-0.178595320636034,-0.06608659362792935,0.8647718,-0.5538668,-0.12880214,0.027832031
