GyroX,GyroY,GyroZ,NoiseX,NoiseY,NoiseZ,ExpGravityX,ExpGravityY,ExpGravityZ,ExpOxX,ExpOxY,ExpOxZ,ExpOyX,ExpOyY,ExpOyZ,AccX,AccY,AccZ,ExpSpeedX,ExpSpeedY,ExpSpeedZ,dT
-0.07820673823821919,0.008260336917835759,-0.0030643185340358454,-0.075015835,0.015192357,-0.002538055,0.034425892,0.008320728,0.99937266,0.9994073,-0.0002866184,-0.034424704,2.910383e-11,-0.9999654,0.008325664,0.37828386230468747,0.10295067138671875,11.226411584472656,0.0016854688,0.0,0.050020024,0.0044555664
-0.0770076570727269,0.010392036767599824,0.0002664624812205083,-0.075015835,0.015192357,-0.002538055,0.034425892,0.008320728,0.99937266,0.9994073,-0.0002866184,-0.034424704,2.910383e-11,-0.9999654,0.008325664,0.3854664672851562,0.08379705810546874,11.274295617675781,0.0073495954,0.0,0.21568693,0.014694214
-0.07847320071943971,0.012390505376753637,-0.002531393571594829,-0.075015835,0.015192357,-0.002538055,0.034425892,0.008320728,0.99937266,0.9994073,-0.0002866184,-0.034424704,2.910383e-11,-0.9999654,0.008325664,0.35673604736328124,0.13407529296874998,11.183315954589844,0.012569778,0.0,0.3793344,0.014633179
-0.08007197560676275,0.012523736617363892,-0.0026646248122050836,-0.075015835,0.015192357,-0.002538055,0.034425892,0.008320728,0.99937266,0.9994073,-0.0002866184,-0.034424704,2.910383e-11,-0.9999654,0.008325664,0.32082302246093747,0.1197100830078125,11.271901416015623,0.017259544,0.0,0.5441061,0.01461792
-0.0814042880128653,0.012656967857974145,-0.0037304747370871167,-0.075015835,0.015192357,-0.002538055,0.034425892,0.008320728,0.99937266,0.9994073,-0.0002866184,-0.034424704,2.910383e-11,-0.9999654,0.008325664,0.3327940307617187,0.09816226806640624,11.219228979492186,0.0221243,0.0,0.7081079,0.01461792
-0.08047166932859352,0.011058192970651094,-0.0019984686091538122,-0.075015835,0.015192357,-0.002538055,0.034425892,0.008320728,0.99937266,0.9994073,-0.0002866184,-0.034424704,2.910383e-11,-0.9999654,0.008325664,0.40222587890625,0.08379705810546874,11.240776794433593,0.028010143,0.0,0.8725962,0.014633179
-0.08087136305042428,0.009192955602107537,-0.0029310872934255917,-0.075015835,0.015192357,-0.002538055,0.034425892,0.008320728,0.99937266,0.9994073,-0.0002866184,-0.034424704,2.910383e-11,-0.9999654,0.008325664,0.36152445068359373,0.086191259765625,11.286266625976562,0.033300396,0.0,1.0377501,0.014633179
-0.07940581940371148,0.007993874436615249,-0.002398162330984575,-0.075015835,0.015192357,-0.002538055,0.034425892,0.008320728,0.99937266,0.9994073,-0.0002866184,-0.034424704,2.910383e-11,-0.9999654,0.008325664,0.38307226562499996,0.07422025146484375,11.317391247558593,0.03890596,0.0,1.2033595,0.014633179
-0.07820673823821919,0.0095926493239383,-0.003464012255866608,-0.075015835,0.015192357,-0.002538055,0.034425892,0.008320728,0.99937266,0.9994073,-0.0002866184,-0.034424704,2.910383e-11,-0.9999654,0.008325664,0.373495458984375,0.12210428466796874,11.209652172851563,0.044365685,0.0,1.3672212,0.01461792
-0.0814042880128653,0.010791730489430587,-0.0031975497746461,-0.075015835,0.015192357,-0.002538055,0.034425892,0.008320728,0.99937266,0.9994073,-0.0002866184,-0.034424704,2.910383e-11,-0.9999654,0.008325664,0.38307226562499996,0.08140285644531249,11.257536206054686,0.049965404,0.0,1.531783,0.01461792
-0.07873966320066021,0.00985911180515881,-0.0011990811654922875,-0.075015835,0.015192357,-0.002538055,0.034425892,0.008320728,0.99937266,0.9994073,-0.0002866184,-0.034424704,2.910383e-11,-0.9999654,0.008325664,0.33758243408203126,0.1149216796875,11.195286962890624,0.054905307,0.0,1.6956056,0.014633179
-0.08073813180981403,0.01212404289553313,-0.0019984686091538122,-0.075015835,0.015192357,-0.002538055,0.034425892,0.008320728,0.99937266,0.9994073,-0.0002866184,-0.034424704,2.910383e-11,-0.9999654,0.008325664,0.4165910888671875,0.10295067138671875,11.264718811035156,0.060995,0.0,1.8602724,0.01461792
-0.08220367545652682,0.01052526800821008,-0.005062787143189658,-0.075015835,0.015192357,-0.002538055,0.034425892,0.008320728,0.99937266,0.9994073,-0.0002866184,-0.034424704,2.910383e-11,-0.9999654,0.008325664,0.39983167724609375,0.055066638183593745,11.312602844238281,0.06683361,0.0,2.0254664,0.014602661
-0.08247013793774732,0.009326186842717792,-0.006528330789902454,-0.075015835,0.015192357,-0.002538055,0.034425892,0.008320728,0.99937266,0.9994073,-0.0002866184,-0.034424704,2.910383e-11,-0.9999654,0.008325664,0.41898529052734373,0.08858546142578125,11.202469567871093,0.072951905,0.0,2.1890523,0.014602661
-0.08273660041896783,0.012390505376753637,-0.0014655436467127959,-0.075015835,0.015192357,-0.002538055,0.034425892,0.008320728,0.99937266,0.9994073,-0.0002866184,-0.034424704,2.910383e-11,-0.9999654,0.008325664,0.36631285400390623,0.14125789794921875,11.156979736328124,0.07830664,0.0,2.3521442,0.01461792
-0.08153751925347555,0.007727411955394742,-0.004396630940138387,-0.075015835,0.015192357,-0.002538055,0.034425892,0.008320728,0.99937266,0.9994073,-0.0002866184,-0.034424704,2.910383e-11,-0.9999654,0.008325664,0.43574470214843747,0.08858546142578125,11.29344923095703,0.08467632,0.0,2.517231,0.01461792
-0.08127105677225505,0.011058192970651094,-0.0037304747370871167,-0.075015835,0.015192357,-0.002538055,0.034425892,0.008320728,0.99937266,0.9994073,-0.0002866184,-0.034424704,2.910383e-11,-0.9999654,0.008325664,0.42377369384765623,0.08140285644531249,11.214440576171874,0.09086454,0.0,2.6809916,0.014602661
-0.07980551312554225,0.011457886692481857,-0.0037304747370871167,-0.075015835,0.015192357,-0.002538055,0.034425892,0.008320728,0.99937266,0.9994073,-0.0002866184,-0.034424704,2.910383e-11,-0.9999654,0.008325664,0.42377369384765623,0.05985504150390625,11.276689819335937,0.09705923,0.0,2.8458333,0.01461792
-0.08060490056920376,0.013056661579804908,-0.002531393571594829,-0.075015835,0.015192357,-0.002538055,0.034425892,0.008320728,0.99937266,0.9994073,-0.0002866184,-0.034424704,2.910383e-11,-0.9999654,0.008325664,0.39983167724609375,0.0718260498046875,11.202469567871093,0.10289783,0.0,3.0094192,0.014602661
-0.08033843808798326,0.00985911180515881,-0.007993874436615249,-0.075015835,0.015192357,-0.002538055,0.034425892,0.008320728,0.99937266,0.9994073,-0.0002866184,-0.034424704,2.910383e-11,-0.9999654,0.008325664,0.430956298828125,0.0909796630859375,11.168950744628905,0.10919094,0.0,3.1725156,0.014602661
-0.07873966320066021,0.00866003063966652,-0.004929555902579405,-0.075015835,0.015192357,-0.002538055,0.034425892,0.008320728,0.99937266,0.9994073,-0.0002866184,-0.034424704,2.910383e-11,-0.9999654,0.008325664,0.39983167724609375,0.08858546142578125,11.180921752929686,0.11502954,0.0,3.3357868,0.014602661
-0.07660796335089615,0.007727411955394742,-0.003464012255866608,-0.075015835,0.015192357,-0.002538055,0.034425892,0.008320728,0.99937266,0.9994073,-0.0002866184,-0.034424704,2.910383e-11,-0.9999654,0.008325664,0.41419688720703124,0.08858546142578125,11.25514200439453,0.1210716,0.0,3.4999702,0.014587402
-0.07887289444127048,0.008793261880276773,-0.002531393571594829,-0.075015835,0.015192357,-0.002538055,0.034425892,0.008320728,0.99937266,0.9994073,-0.0002866184,-0.034424704,2.910383e-11,-0.9999654,0.008325664,0.373495458984375,0.15562310791015624,11.245565197753905,0.12652563,0.0,3.6641853,0.014602661
-0.08193721297530632,0.008526799399056265,-0.0010658499248820332,-0.075015835,0.015192357,-0.002538055,0.034425892,0.008320728,0.99937266,0.9994073,-0.0002866184,-0.034424704,2.910383e-11,-0.9999654,0.008325664,0.40222587890625,0.062249243164062495,11.171344946289063,0.1324974,0.0,3.830044,0.014846802
-0.07993874436615249,0.011724349173702367,-0.0006661562030512709,-0.075015835,0.015192357,-0.002538055,0.034425892,0.008320728,0.99937266,0.9994073,-0.0002866184,-0.034424704,2.910383e-11,-0.9999654,0.008325664,0.4070142822265625,0.0909796630859375,11.288660827636718,0.13847195,0.0,3.9957497,0.014678955
-0.08300306290018834,0.009992343045769061,-0.0013323124061025418,-0.075015835,0.015192357,-0.002538055,0.034425892,0.008320728,0.99937266,0.9994073,-0.0002866184,-0.034424704,2.910383e-11,-0.9999654,0.008325664,0.4165910888671875,0.1149216796875,11.29344923095703,0.144568,0.0,4.161009,0.014633179
-0.07873966320066021,0.008926493120887028,-0.000799387443661525,-0.075015835,0.015192357,-0.002538055,0.034425892,0.008320728,0.99937266,0.9994073,-0.0002866184,-0.034424704,2.910383e-11,-0.9999654,0.008325664,0.40940848388671874,0.1005564697265625,11.305420239257812,0.15055269,0.0,4.3262706,0.01461792
-0.08007197560676275,0.0057289433462409285,-0.0030643185340358454,-0.075015835,0.015192357,-0.002538055,0.034425892,0.008320728,0.99937266,0.9994073,-0.0002866184,-0.034424704,2.910383e-11,-0.9999654,0.008325664,0.39264907226562495,0.0718260498046875,11.190498559570312,0.15629241,0.0,4.4898524,0.01461792
-0.07687442583211665,0.00866003063966652,0.00013323124061025415,-0.075015835,0.015192357,-0.002538055,0.034425892,0.008320728,0.99937266,0.9994073,-0.0002866184,-0.034424704,2.910383e-11,-0.9999654,0.008325664,0.3399766357421875,-0.00239420166015625,11.264718811035156,0.16126215,0.0,4.654519,0.01461792
-0.07847320071943971,0.010791730489430587,-0.0035972434964768626,-0.075015835,0.015192357,-0.002538055,0.034425892,0.008320728,0.99937266,0.9994073,-0.0002866184,-0.034424704,2.910383e-11,-0.9999654,0.008325664,0.43574470214843747,0.1005564697265625,11.195286962890624,0.16763848,0.0,4.8183417,0.014633179
-0.07807350699760894,0.012923430339194655,-0.0039969372183076245,-0.075015835,0.015192357,-0.002538055,0.034425892,0.008320728,0.99937266,0.9994073,-0.0002866184,-0.034424704,2.910383e-11,-0.9999654,0.008325664,0.3399766357421875,0.11731588134765625,11.243170996093749,0.17260304,0.0,4.982522,0.014602661
-0.07727411955394742,0.013056661579804908,-0.004263399699528133,-0.075015835,0.015192357,-0.002538055,0.034425892,0.008320728,0.99937266,0.9994073,-0.0002866184,-0.034424704,2.910383e-11,-0.9999654,0.008325664,0.3495534423828125,0.06943184814453125,11.195286962890624,0.17770745,0.0,5.146003,0.014602661
-0.07887289444127048,0.01052526800821008,-0.0014655436467127959,-0.075015835,0.015192357,-0.002538055,0.034425892,0.008320728,0.99937266,0.9994073,-0.0002866184,-0.034424704,2.910383e-11,-0.9999654,0.008325664,0.3399766357421875,0.11013327636718749,11.303026037597656,0.18268238,0.0,5.311402,0.014633179
-0.08060490056920376,0.01345635530163567,-0.00159877488732305,-0.075015835,0.015192357,-0.002538055,0.034425892,0.008320728,0.99937266,0.9994073,-0.0002866184,-0.034424704,2.910383e-11,-0.9999654,0.008325664,0.44053310546874996,0.06943184814453125,11.243170996093749,0.18911533,0.0,5.475582,0.014602661
-0.07820673823821919,0.008793261880276773,-0.0011990811654922875,-0.075015835,0.015192357,-0.002538055,0.034425892,0.008320728,0.99937266,0.9994073,-0.0002866184,-0.034424704,2.910383e-11,-0.9999654,0.008325664,0.36631285400390623,0.09337386474609374,11.221623181152344,0.19445889,0.0,5.6392765,0.014587402
-0.07833996947882944,0.014255742745297196,-0.00479632466196915,-0.075015835,0.015192357,-0.002538055,0.034425892,0.008320728,0.99937266,0.9994073,-0.0002866184,-0.034424704,2.910383e-11,-0.9999654,0.008325664,0.40462008056640625,0.10773907470703124,11.121066711425781,0.20036124,0.0,5.801504,0.014587402
-0.080205206847373,0.008793261880276773,-0.0026646248122050836,-0.075015835,0.015192357,-0.002538055,0.034425892,0.008320728,0.99937266,0.9994073,-0.0002866184,-0.034424704,2.910383e-11,-0.9999654,0.008325664,0.4165910888671875,0.11013327636718749,11.295843432617186,0.20643821,0.0,5.966281,0.014587402
-0.07873966320066021,0.008793261880276773,-0.00479632466196915,-0.075015835,0.015192357,-0.002538055,0.034425892,0.008320728,0.99937266,0.9994073,-0.0002866184,-0.034424704,2.910383e-11,-0.9999654,0.008325664,0.40940848388671874,0.062249243164062495,11.228805786132812,0.21241666,0.0,6.1302514,0.014602661
-0.07967228188493199,0.010258805526989571,-0.00013323124061025415,-0.075015835,0.015192357,-0.002538055,0.034425892,0.008320728,0.99937266,0.9994073,-0.0002866184,-0.034424704,2.910383e-11,-0.9999654,0.008325664,0.34715924072265625,0.08858546142578125,11.192892761230468,0.2174914,0.0,6.293868,0.01461792
-0.08060490056920376,0.01372281778285618,-0.003464012255866608,-0.075015835,0.015192357,-0.002538055,0.034425892,0.008320728,0.99937266,0.9994073,-0.0002866184,-0.034424704,2.910383e-11,-0.9999654,0.008325664,0.36631285400390623,0.11013327636718749,11.214440576171874,0.22292998,0.0,6.4603667,0.014846802
-0.07913935692249098,0.00866003063966652,0.0,-0.075015835,0.015192357,-0.002538055,0.034425892,0.008320728,0.99937266,0.9994073,-0.0002866184,-0.034424704,2.910383e-11,-0.9999654,0.008325664,0.39983167724609375,0.12449848632812499,11.235988391113281,0.22878079,0.0,6.624785,0.014633179
-0.07940581940371148,0.012523736617363892,-0.003464012255866608,-0.075015835,0.015192357,-0.002538055,0.034425892,0.008320728,0.99937266,0.9994073,-0.0002866184,-0.034424704,2.910383e-11,-0.9999654,0.008325664,0.39983167724609375,0.13407529296874998,11.235988391113281,0.2346194,0.0,6.7888603,0.014602661
-0.08113782553164478,0.008260336917835759,-0.0035972434964768626,-0.075015835,0.015192357,-0.002538055,0.034425892,0.008320728,0.99937266,0.9994073,-0.0002866184,-0.034424704,2.910383e-11,-0.9999654,0.008325664,0.3806780639648437,0.08379705810546874,11.2240173828125,0.2401783,0.0,6.9527607,0.014602661
-0.0834027566220191,0.009459418083328047,-0.0010658499248820332,-0.075015835,0.015192357,-0.002538055,0.034425892,0.008320728,0.99937266,0.9994073,-0.0002866184,-0.034424704,2.910383e-11,-0.9999654,0.008325664,0.430956298828125,0.08140285644531249,11.243170996093749,0.24646483,0.0,7.1167693,0.014587402
-0.080205206847373,0.01212404289553313,-0.002797856052815337,-0.075015835,0.015192357,-0.002538055,0.034425892,0.008320728,0.99937266,0.9994073,-0.0002866184,-0.034424704,2.910383e-11,-0.9999654,0.008325664,0.42377369384765623,0.11252747802734374,11.180921752929686,0.25265306,0.0,7.2800407,0.014602661
-0.07887289444127048,0.009059724361497283,-0.0030643185340358454,-0.075015835,0.015192357,-0.002538055,0.034425892,0.008320728,0.99937266,0.9994073,-0.0002866184,-0.034424704,2.910383e-11,-0.9999654,0.008325664,0.36391865234375,0.0718260498046875,11.233594189453123,0.25796723,0.0,7.4440813,0.014602661
-0.08047166932859352,0.011724349173702367,-0.0021316998497640663,-0.075015835,0.015192357,-0.002538055,0.034425892,0.008320728,0.99937266,0.9994073,-0.0002866184,-0.034424704,2.910383e-11,-0.9999654,0.008325664,0.42377369384765623,0.13168109130859373,11.288660827636718,0.26414898,0.0,7.6087537,0.014587402
-0.080205206847373,0.008127105677225504,0.00013323124061025415,-0.075015835,0.015192357,-0.002538055,0.034425892,0.008320728,0.99937266,0.9994073,-0.0002866184,-0.034424704,2.910383e-11,-0.9999654,0.008325664,0.37828386230468747,0.11013327636718749,11.231199987792968,0.26967293,0.0,7.772759,0.014602661
-0.08007197560676275,0.010392036767599824,-0.003863705977697371,-0.075015835,0.015192357,-0.002538055,0.034425892,0.008320728,0.99937266,0.9994073,-0.0002866184,-0.034424704,2.910383e-11,-0.9999654,0.008325664,0.430956298828125,0.09816226806640624,11.274295617675781,0.2759792,0.0,7.937738,0.014633179
-0.07860643196004995,0.008393568158446012,-0.000799387443661525,-0.075015835,0.015192357,-0.002538055,0.034425892,0.008320728,0.99937266,0.9994073,-0.0002866184,-0.034424704,2.910383e-11,-0.9999654,0.008325664,0.3854664672851562,0.1197100830078125,11.207257971191405,0.28160802,0.0,8.101394,0.014602661
-0.07807350699760894,0.007061255752343471,-0.0009326186842717792,-0.075015835,0.015192357,-0.002538055,0.034425892,0.008320728,0.99937266,0.9994073,-0.0002866184,-0.034424704,2.910383e-11,-0.9999654,0.008325664,0.4381389038085937,0.06464344482421874,11.130643518066405,0.28799933,0.0,8.263761,0.014587402
-0.0814042880128653,0.007061255752343471,0.001732006127933304,-0.075015835,0.015192357,-0.002538055,0.034425892,0.008320728,0.99937266,0.9994073,-0.0002866184,-0.034424704,2.910383e-11,-0.9999654,0.008325664,0.45010991210937495,0.13407529296874998,11.231199987792968,0.294579,0.0,8.4279375,0.01461792
-0.08180398173469605,0.011724349173702367,-0.0018652373685435584,-0.075015835,0.015192357,-0.002538055,0.034425892,0.008320728,0.99937266,0.9994073,-0.0002866184,-0.034424704,2.910383e-11,-0.9999654,0.008325664,0.42377369384765623,0.07422025146484375,11.3006318359375,0.3007672,0.0,8.592957,0.014602661
-0.07927258816310122,0.008793261880276773,0.0003996937218307625,-0.075015835,0.015192357,-0.002538055,0.034425892,0.008320728,0.99937266,0.9994073,-0.0002866184,-0.034424704,2.910383e-11,-0.9999654,0.008325664,0.36391865234375,0.06464344482421874,11.207257971191405,0.30608138,0.0,8.756613,0.014602661
-0.08100459429103453,0.010258805526989571,-0.0021316998497640663,-0.075015835,0.015192357,-0.002538055,0.034425892,0.008320728,0.99937266,0.9994073,-0.0002866184,-0.034424704,2.910383e-11,-0.9999654,0.008325664,0.39264907226562495,0.12689268798828124,11.288660827636718,0.3118151,0.0,8.921457,0.014602661
-0.0814042880128653,0.01372281778285618,-0.002398162330984575,-0.075015835,0.015192357,-0.002538055,0.034425892,0.008320728,0.99937266,0.9994073,-0.0002866184,-0.034424704,2.910383e-11,-0.9999654,0.008325664,0.3854664672851562,0.11252747802734374,11.173739147949219,0.31744984,0.0,9.084794,0.01461792
-0.07727411955394742,0.013856049023466432,-0.0018652373685435584,-0.075015835,0.015192357,-0.002538055,0.034425892,0.008320728,0.99937266,0.9994073,-0.0002866184,-0.034424704,2.910383e-11,-0.9999654,0.008325664,0.3758896606445312,0.1197100830078125,11.252747802734374,0.32293883,0.0,9.249114,0.014602661
-0.07833996947882944,0.011591117933092112,-0.0029310872934255917,-0.075015835,0.015192357,-0.002538055,0.034425892,0.008320728,0.99937266,0.9994073,-0.0002866184,-0.034424704,2.910383e-11,-0.9999654,0.008325664,0.3950432739257812,0.08858546142578125,11.288660827636718,0.32870752,0.0,9.413959,0.014602661
-0.07900612568188072,0.010924961730040842,-0.004130168458917879,-0.075015835,0.015192357,-0.002538055,0.034425892,0.008320728,0.99937266,0.9994073,-0.0002866184,-0.034424704,2.910383e-11,-0.9999654,0.008325664,0.33758243408203126,0.12210428466796874,11.202469567871093,0.33363712,0.0,9.577544,0.014602661
-0.08193721297530632,0.010392036767599824,0.00159877488732305,-0.075015835,0.015192357,-0.002538055,0.034425892,0.008320728,0.99937266,0.9994073,-0.0002866184,-0.034424704,2.910383e-11,-0.9999654,0.008325664,0.41419688720703124,0.10295067138671875,11.2240173828125,0.33967918,0.0,9.741274,0.014587402
-0.08127105677225505,0.013589586542245924,-0.002264931090374321,-0.075015835,0.015192357,-0.002538055,0.034425892,0.008320728,0.99937266,0.9994073,-0.0002866184,-0.034424704,2.910383e-11,-0.9999654,0.008325664,0.4070142822265625,0.1580173095703125,11.18571015625,0.3456289,0.0,9.904786,0.01461792
-0.08100459429103453,0.010258805526989571,-0.002264931090374321,-0.075015835,0.015192357,-0.002538055,0.034425892,0.008320728,0.99937266,0.9994073,-0.0002866184,-0.034424704,2.910383e-11,-0.9999654,0.008325664,0.411802685546875,0.06943184814453125,11.235988391113281,0.35163602,0.0,10.06869,0.014587402
-0.08153751925347555,0.010258805526989571,0.0002664624812205083,-0.075015835,0.015192357,-0.002538055,0.034425892,0.008320728,0.99937266,0.9994073,-0.0002866184,-0.034424704,2.910383e-11,-0.9999654,0.008325664,0.39743747558593745,0.09816226806640624,11.286266625976562,0.35743967,0.0,10.2335,0.014602661
-0.08007197560676275,0.01052526800821008,-0.005462480865020421,-0.075015835,0.015192357,-0.002538055,0.034425892,0.008320728,0.99937266,0.9994073,-0.0002866184,-0.034424704,2.910383e-11,-0.9999654,0.008325664,0.3950432739257812,0.1771709228515625,11.154585534667968,0.36321437,0.0,10.396556,0.01461792
-0.07900612568188072,0.011990811654922875,-0.004130168458917879,-0.075015835,0.015192357,-0.002538055,0.034425892,0.008320728,0.99937266,0.9994073,-0.0002866184,-0.034424704,2.910383e-11,-0.9999654,0.008325664,0.373495458984375,0.05027823486328125,11.291055029296874,0.3686684,0.0,10.561436,0.014602661
-0.08073813180981403,0.0095926493239383,-0.00479632466196915,-0.075015835,0.015192357,-0.002538055,0.034425892,0.008320728,0.99937266,0.9994073,-0.0002866184,-0.034424704,2.910383e-11,-0.9999654,0.008325664,0.39264907226562495,0.1005564697265625,11.267113012695312,0.37440214,0.0,10.7259655,0.014602661
-0.080205206847373,0.009326186842717792,-0.0037304747370871167,-0.075015835,0.015192357,-0.002538055,0.034425892,0.008320728,0.99937266,0.9994073,-0.0002866184,-0.034424704,2.910383e-11,-0.9999654,0.008325664,0.37828386230468747,0.09576806640624999,11.288660827636718,0.3799261,0.0,10.89081,0.014602661
-0.07820673823821919,0.010658499248820334,-0.0021316998497640663,-0.075015835,0.015192357,-0.002538055,0.034425892,0.008320728,0.99937266,0.9994073,-0.0002866184,-0.034424704,2.910383e-11,-0.9999654,0.008325664,0.38786066894531246,0.08379705810546874,11.247959399414063,0.3855899,0.0,11.05506,0.014602661
-0.07847320071943971,0.008526799399056265,-0.002264931090374321,-0.075015835,0.015192357,-0.002538055,0.034425892,0.008320728,0.99937266,0.9994073,-0.0002866184,-0.034424704,2.910383e-11,-0.9999654,0.008325664,0.39264907226562495,0.105344873046875,11.243170996093749,0.39132363,0.0,11.21924,0.014602661
-0.08207044421591657,0.009459418083328047,-0.0009326186842717792,-0.075015835,0.015192357,-0.002538055,0.034425892,0.008320728,0.99937266,0.9994073,-0.0002866184,-0.034424704,2.910383e-11,-0.9999654,0.008325664,0.3950432739257812,0.062249243164062495,11.269507214355468,0.3970923,0.0,11.383805,0.014602661
-0.08300306290018834,0.012656967857974145,-0.00013323124061025415,-0.075015835,0.015192357,-0.002538055,0.034425892,0.008320728,0.99937266,0.9994073,-0.0002866184,-0.034424704,2.910383e-11,-0.9999654,0.008325664,0.3950432739257812,0.06464344482421874,11.233594189453123,0.402861,0.0,11.547846,0.014602661
-0.08127105677225505,0.010658499248820334,-0.0039969372183076245,-0.075015835,0.015192357,-0.002538055,0.034425892,0.008320728,0.99937266,0.9994073,-0.0002866184,-0.034424704,2.910383e-11,-0.9999654,0.008325664,0.32561142578124996,0.047884033203124995,11.195286962890624,0.40762076,0.0,11.711497,0.01461792
-0.07727411955394742,0.010658499248820334,-0.0019984686091538122,-0.075015835,0.015192357,-0.002538055,0.034425892,0.008320728,0.99937266,0.9994073,-0.0002866184,-0.034424704,2.910383e-11,-0.9999654,0.008325664,0.40940848388671874,0.076614453125,11.190498559570312,0.41360545,0.0,11.875079,0.01461792
-0.07820673823821919,0.0074609494741742334,-0.003863705977697371,-0.075015835,0.015192357,-0.002538055,0.034425892,0.008320728,0.99937266,0.9994073,-0.0002866184,-0.034424704,2.910383e-11,-0.9999654,0.008325664,0.38307226562499996,0.1149216796875,11.221623181152344,0.41919348,0.0,12.038774,0.014587402
-0.07927258816310122,0.010924961730040842,-0.0014655436467127959,-0.075015835,0.015192357,-0.002538055,0.034425892,0.008320728,0.99937266,0.9994073,-0.0002866184,-0.034424704,2.910383e-11,-0.9999654,0.008325664,0.4165910888671875,0.04548983154296875,11.238382592773437,0.42527682,0.0,12.202884,0.014602661
-0.08127105677225505,0.011058192970651094,-0.0003996937218307625,-0.075015835,0.015192357,-0.002538055,0.034425892,0.008320728,0.99937266,0.9994073,-0.0002866184,-0.034424704,2.910383e-11,-0.9999654,0.008325664,0.3687070556640625,0.062249243164062495,11.221623181152344,0.4306553,0.0,12.366578,0.014587402
-0.080205206847373,0.012390505376753637,-0.0009326186842717792,-0.075015835,0.015192357,-0.002538055,0.034425892,0.008320728,0.99937266,0.9994073,-0.0002866184,-0.034424704,2.910383e-11,-0.9999654,0.008325664,0.36391865234375,0.06943184814453125,11.259930407714844,0.43596947,0.0,12.531003,0.014602661
-0.08366921910323963,0.011591117933092112,-0.0018652373685435584,-0.075015835,0.015192357,-0.002538055,0.034425892,0.008320728,0.99937266,0.9994073,-0.0002866184,-0.034424704,2.910383e-11,-0.9999654,0.008325664,0.37828386230468747,0.12210428466796874,11.2240173828125,0.44149342,0.0,12.694903,0.014602661
-0.07767381327577817,0.00866003063966652,-0.003464012255866608,-0.075015835,0.015192357,-0.002538055,0.034425892,0.008320728,0.99937266,0.9994073,-0.0002866184,-0.034424704,2.910383e-11,-0.9999654,0.008325664,0.37828386230468747,0.12210428466796874,11.250353601074218,0.44701737,0.0,12.859188,0.014602661
-0.08207044421591657,0.009326186842717792,-0.003863705977697371,-0.075015835,0.015192357,-0.002538055,0.034425892,0.008320728,0.99937266,0.9994073,-0.0002866184,-0.034424704,2.910383e-11,-0.9999654,0.008325664,0.3758896606445312,0.11013327636718749,11.267113012695312,0.45250636,0.0,13.023718,0.014602661
-0.07807350699760894,0.013189892820415163,-0.0033307810152563544,-0.075015835,0.015192357,-0.002538055,0.034425892,0.008320728,0.99937266,0.9994073,-0.0002866184,-0.034424704,2.910383e-11,-0.9999654,0.008325664,0.3591302490234375,0.11013327636718749,11.159373937988281,0.45775062,0.0,13.186674,0.014602661
-0.07913935692249098,0.006794793271122962,0.0005329249624410166,-0.075015835,0.015192357,-0.002538055,0.034425892,0.008320728,0.99937266,0.9994073,-0.0002866184,-0.034424704,2.910383e-11,-0.9999654,0.008325664,0.4381389038085937,0.0718260498046875,11.166556542968749,0.46414194,0.0,13.3495655,0.014587402
-0.07993874436615249,0.010791730489430587,-0.0073277182335639785,-0.075015835,0.015192357,-0.002538055,0.034425892,0.008320728,0.99937266,0.9994073,-0.0002866184,-0.034424704,2.910383e-11,-0.9999654,0.008325664,0.36391865234375,0.1005564697265625,11.228805786132812,0.46947277,0.0,13.51405,0.0146484375
-0.08007197560676275,0.01212404289553313,-0.002531393571594829,-0.075015835,0.015192357,-0.002538055,0.034425892,0.008320728,0.99937266,0.9994073,-0.0002866184,-0.034424704,2.910383e-11,-0.9999654,0.008325664,0.3495534423828125,0.1292868896484375,11.197681164550781,0.47458786,0.0,13.677907,0.014633179
-0.0846018377875114,0.011191424211261349,-0.0031975497746461,-0.075015835,0.015192357,-0.002538055,0.034425892,0.008320728,0.99937266,0.9994073,-0.0002866184,-0.034424704,2.910383e-11,-0.9999654,0.008325664,0.3950432739257812,0.09816226806640624,11.21683477783203,0.48036858,0.0,13.842045,0.014633179
-0.0814042880128653,0.008260336917835759,-0.004396630940138387,-0.075015835,0.015192357,-0.002538055,0.034425892,0.008320728,0.99937266,0.9994073,-0.0002866184,-0.034424704,2.910383e-11,-0.9999654,0.008325664,0.3495534423828125,0.1149216796875,11.269507214355468,0.485489,0.0,14.007126,0.0146484375
-0.07847320071943971,0.010924961730040842,-0.002264931090374321,-0.075015835,0.015192357,-0.002538055,0.034425892,0.008320728,0.99937266,0.9994073,-0.0002866184,-0.034424704,2.910383e-11,-0.9999654,0.008325664,0.35673604736328124,0.10773907470703124,11.214440576171874,0.49080718,0.0,14.174309,0.014907837
-0.08127105677225505,0.010791730489430587,-0.004529862180748642,-0.075015835,0.015192357,-0.002538055,0.034425892,0.008320728,0.99937266,0.9994073,-0.0002866184,-0.034424704,2.910383e-11,-0.9999654,0.008325664,0.32082302246093747,0.076614453125,11.21683477783203,0.49551162,0.0,14.338789,0.014663696
-0.07820673823821919,0.011724349173702367,-0.0037304747370871167,-0.075015835,0.015192357,-0.002538055,0.034425892,0.008320728,0.99937266,0.9994073,-0.0002866184,-0.034424704,2.910383e-11,-0.9999654,0.008325664,0.430956298828125,0.12210428466796874,11.159373937988281,0.5018179,0.0,14.502086,0.014633179
-0.08073813180981403,0.010125574286379316,-0.0021316998497640663,-0.075015835,0.015192357,-0.002538055,0.034425892,0.008320728,0.99937266,0.9994073,-0.0002866184,-0.034424704,2.910383e-11,-0.9999654,0.008325664,0.40222587890625,0.11731588134765625,11.142614526367186,0.5076976,0.0,14.664968,0.01461792
-0.07873966320066021,0.012656967857974145,-0.00013323124061025415,-0.075015835,0.015192357,-0.002538055,0.034425892,0.008320728,0.99937266,0.9994073,-0.0002866184,-0.034424704,2.910383e-11,-0.9999654,0.008325664,0.38307226562499996,0.05027823486328125,11.18571015625,0.513309,0.0,14.828821,0.0146484375
-0.08153751925347555,0.013056661579804908,-0.002531393571594829,-0.075015835,0.015192357,-0.002538055,0.034425892,0.008320728,0.99937266,0.9994073,-0.0002866184,-0.034424704,2.910383e-11,-0.9999654,0.008325664,0.39983167724609375,0.12210428466796874,11.243170996093749,0.5191537,0.0,14.993173,0.01461792
-0.07687442583211665,0.012390505376753637,-0.0014655436467127959,-0.075015835,0.015192357,-0.002538055,0.034425892,0.008320728,0.99937266,0.9994073,-0.0002866184,-0.034424704,2.910383e-11,-0.9999654,0.008325664,0.4213794921875,0.1005564697265625,11.262324609375,0.5253198,0.0,15.157976,0.014633179
-0.08007197560676275,0.0127901990985844,-0.003464012255866608,-0.075015835,0.015192357,-0.002538055,0.034425892,0.008320728,0.99937266,0.9994073,-0.0002866184,-0.034424704,2.910383e-11,-0.9999654,0.008325664,0.3806780639648437,0.1484405029296875,11.271901416015623,0.5308961,0.0,15.3230915,0.0146484375
-0.08087136305042428,0.007727411955394742,-0.001732006127933304,-0.075015835,0.015192357,-0.002538055,0.034425892,0.008320728,0.99937266,0.9994073,-0.0002866184,-0.034424704,2.910383e-11,-0.9999654,0.008325664,0.4165910888671875,0.11013327636718749,11.149797131347656,0.5369922,0.0,15.486248,0.014633179
-0.08127105677225505,0.010392036767599824,-0.0006661562030512709,-0.075015835,0.015192357,-0.002538055,0.034425892,0.008320728,0.99937266,0.9994073,-0.0002866184,-0.034424704,2.910383e-11,-0.9999654,0.008325664,0.34715924072265625,0.02154781494140625,11.245565197753905,0.54207224,0.0,15.650806,0.014633179
-0.08127105677225505,0.009059724361497283,-0.0005329249624410166,-0.075015835,0.015192357,-0.002538055,0.034425892,0.008320728,0.99937266,0.9994073,-0.0002866184,-0.034424704,2.910383e-11,-0.9999654,0.008325664,0.4213794921875,0.1197100830078125,11.247959399414063,0.54823834,0.0,15.8154,0.014633179
-0.08127105677225505,0.010924961730040842,-0.003464012255866608,-0.075015835,0.015192357,-0.002538055,0.034425892,0.008320728,0.99937266,0.9994073,-0.0002866184,-0.034424704,2.910383e-11,-0.9999654,0.008325664,0.3447650390625,0.05746083984375,11.264718811035156,0.5532781,0.0,15.980067,0.01461792
-0.07927258816310122,0.011591117933092112,-0.000799387443661525,-0.075015835,0.015192357,-0.002538055,0.034425892,0.008320728,0.99937266,0.9994073,-0.0002866184,-0.034424704,2.910383e-11,-0.9999654,0.008325664,0.4213794921875,0.20350714111328125,11.204863769531249,0.55943775,0.002974851,16.14386,0.01461792
-0.08047166932859352,0.011191424211261349,0.0005329249624410166,-0.075015835,0.015192357,-0.002538055,0.034425892,0.008320728,0.99937266,0.9994073,-0.0002866184,-0.034424704,2.910383e-11,-0.9999654,0.008325664,0.4165910888671875,0.06703764648437499,11.310208642578125,0.5655338,0.002974851,16.309364,0.014633179
-0.07873966320066021,0.007061255752343471,-0.00479632466196915,-0.075015835,0.015192357,-0.002538055,0.034425892,0.008320728,0.99937266,0.9994073,-0.0002866184,-0.034424704,2.910383e-11,-0.9999654,0.008325664,0.4213794921875,0.0909796630859375,11.228805786132812,0.5716999,0.002974851,16.473677,0.014633179
-0.07727411955394742,0.011191424211261349,-0.001732006127933304,-0.075015835,0.015192357,-0.002538055,0.034425892,0.008320728,0.99937266,0.9994073,-0.0002866184,-0.034424704,2.910383e-11,-0.9999654,0.008325664,0.3950432739257812,0.1580173095703125,11.33175645751953,0.57747465,0.002974851,16.639324,0.01461792
-0.07754058203516792,0.010392036767599824,-0.0037304747370871167,-0.075015835,0.015192357,-0.002538055,0.034425892,0.008320728,0.99937266,0.9994073,-0.0002866184,-0.034424704,2.910383e-11,-0.9999654,0.008325664,0.34237083740234375,0.09816226806640624,11.334150659179686,0.5825734,0.002974851,16.808119,0.014892578
-0.07953905064432175,0.0074609494741742334,-0.0021316998497640663,-0.075015835,0.015192357,-0.002538055,0.034425892,0.008320728,0.99937266,0.9994073,-0.0002866184,-0.034424704,2.910383e-11,-0.9999654,0.008325664,0.40222587890625,0.1005564697265625,11.305420239257812,0.58845925,0.002974851,16.973553,0.014633179
-0.07820673823821919,0.009059724361497283,-0.0035972434964768626,-0.075015835,0.015192357,-0.002538055,0.034425892,0.008320728,0.99937266,0.9994073,-0.0002866184,-0.034424704,2.910383e-11,-0.9999654,0.008325664,0.354341845703125,0.08858546142578125,11.219228979492186,0.5936498,0.002974851,17.137897,0.0146484375
-0.07807350699760894,0.009992343045769061,-0.004663093421358896,-0.075015835,0.015192357,-0.002538055,0.034425892,0.008320728,0.99937266,0.9994073,-0.0002866184,-0.034424704,2.910383e-11,-0.9999654,0.008325664,0.4261678955078125,0.09337386474609374,11.298237634277344,0.5998795,0.002974851,17.303055,0.01461792
-0.08007197560676275,0.009725880564548555,-0.0010658499248820332,-0.075015835,0.015192357,-0.002538055,0.034425892,0.008320728,0.99937266,0.9994073,-0.0002866184,-0.034424704,2.910383e-11,-0.9999654,0.008325664,0.36152445068359373,0.10295067138671875,11.207257971191405,0.60516423,0.002974851,17.46688,0.01461792
-0.07727411955394742,0.010924961730040842,-0.0014655436467127959,-0.075015835,0.015192357,-0.002538055,0.034425892,0.008320728,0.99937266,0.9994073,-0.0002866184,-0.034424704,2.910383e-11,-0.9999654,0.008325664,0.35673604736328124,0.09576806640624999,11.161768139648437,0.6103844,0.002974851,17.630213,0.014633179
-0.07820673823821919,0.00866003063966652,-0.0029310872934255917,-0.075015835,0.015192357,-0.002538055,0.034425892,0.008320728,0.99937266,0.9994073,-0.0002866184,-0.034424704,2.910383e-11,-0.9999654,0.008325664,0.3902548706054687,0.06464344482421874,11.233594189453123,0.61609507,0.002974851,17.794596,0.014633179
-0.07807350699760894,0.008526799399056265,-0.002264931090374321,-0.075015835,0.015192357,-0.002538055,0.034425892,0.008320728,0.99937266,0.9994073,-0.0002866184,-0.034424704,2.910383e-11,-0.9999654,0.008325664,0.36391865234375,0.1149216796875,11.3389390625,0.6214259,0.002974851,17.960693,0.0146484375
-0.080205206847373,0.005995405827461438,-0.0021316998497640663,-0.075015835,0.015192357,-0.002538055,0.034425892,0.008320728,0.99937266,0.9994073,-0.0002866184,-0.034424704,2.910383e-11,-0.9999654,0.008325664,0.38307226562499996,0.0909796630859375,11.207257971191405,0.62703735,0.002974851,18.124863,0.0146484375
-0.0764747321102859,0.011058192970651094,-0.0005329249624410166,-0.075015835,0.015192357,-0.002538055,0.034425892,0.008320728,0.99937266,0.9994073,-0.0002866184,-0.034424704,2.910383e-11,-0.9999654,0.008325664,0.4165910888671875,0.12689268798828124,11.228805786132812,0.63312703,0.002974851,18.289005,0.01461792
-0.07833996947882944,0.009459418083328047,-0.0010658499248820332,-0.075015835,0.015192357,-0.002538055,0.034425892,0.008320728,0.99937266,0.9994073,-0.0002866184,-0.034424704,2.910383e-11,-0.9999654,0.008325664,0.4261678955078125,0.08140285644531249,11.247959399414063,0.63935673,0.002974851,18.453426,0.01461792
-0.07714088831333717,0.012656967857974145,-0.0019984686091538122,-0.075015835,0.015192357,-0.002538055,0.034425892,0.008320728,0.99937266,0.9994073,-0.0002866184,-0.034424704,2.910383e-11,-0.9999654,0.008325664,0.39264907226562495,0.06703764648437499,11.219228979492186,0.6450964,0.002974851,18.617428,0.01461792
-0.07833996947882944,0.00985911180515881,-0.002797856052815337,-0.075015835,0.015192357,-0.002538055,0.034425892,0.008320728,0.99937266,0.9994073,-0.0002866184,-0.034424704,2.910383e-11,-0.9999654,0.008325664,0.45010991210937495,0.06464344482421874,11.200075366210937,0.651683,0.002974851,18.78132,0.014633179
-0.08073813180981403,0.011058192970651094,-0.0030643185340358454,-0.075015835,0.015192357,-0.002538055,0.034425892,0.008320728,0.99937266,0.9994073,-0.0002866184,-0.034424704,2.910383e-11,-0.9999654,0.008325664,0.36391865234375,0.1197100830078125,11.238382592773437,0.6570027,0.002974851,18.945602,0.01461792
-0.07807350699760894,0.009725880564548555,-0.001732006127933304,-0.075015835,0.015192357,-0.002538055,0.034425892,0.008320728,0.99937266,0.9994073,-0.0002866184,-0.034424704,2.910383e-11,-0.9999654,0.008325664,0.40222587890625,0.0718260498046875,11.18571015625,0.6628885,0.002974851,19.109285,0.014633179
-0.07714088831333717,0.012390505376753637,-0.0011990811654922875,-0.075015835,0.015192357,-0.002538055,0.034425892,0.008320728,0.99937266,0.9994073,-0.0002866184,-0.034424704,2.910383e-11,-0.9999654,0.008325664,0.36391865234375,0.09576806640624999,11.130643518066405,0.66820824,0.002974851,19.271992,0.01461792
-0.07940581940371148,0.007061255752343471,-0.003464012255866608,-0.075015835,0.015192357,-0.002538055,0.034425892,0.008320728,0.99937266,0.9994073,-0.0002866184,-0.034424704,2.910383e-11,-0.9999654,0.008325664,0.4261678955078125,0.11731588134765625,11.214440576171874,0.67445093,0.002974851,19.436266,0.0146484375
-0.08087136305042428,0.0075941807147844875,-0.0039969372183076245,-0.075015835,0.015192357,-0.002538055,0.034425892,0.008320728,0.99937266,0.9994073,-0.0002866184,-0.034424704,2.910383e-11,-0.9999654,0.008325664,0.3902548706054687,0.09576806640624999,11.240776794433593,0.68015563,0.002974851,19.600582,0.01461792
-0.07873966320066021,0.008260336917835759,-0.0018652373685435584,-0.075015835,0.015192357,-0.002538055,0.034425892,0.008320728,0.99937266,0.9994073,-0.0002866184,-0.034424704,2.910383e-11,-0.9999654,0.008325664,0.3232172241210937,0.1197100830078125,11.238382592773437,0.6848804,0.002974851,19.764864,0.01461792
-0.07714088831333717,0.008793261880276773,-0.0011990811654922875,-0.075015835,0.015192357,-0.002538055,0.034425892,0.008320728,0.99937266,0.9994073,-0.0002866184,-0.034424704,2.910383e-11,-0.9999654,0.008325664,0.4285620971679687,0.06943184814453125,11.295843432617186,0.6911516,0.002974851,19.930159,0.014633179
-0.08113782553164478,0.010791730489430587,-0.0002664624812205083,-0.075015835,0.015192357,-0.002538055,0.034425892,0.008320728,0.99937266,0.9994073,-0.0002866184,-0.034424704,2.910383e-11,-0.9999654,0.008325664,0.4333505004882812,0.0526724365234375,11.133037719726563,0.6974863,0.002974851,20.092901,0.01461792
-0.0764747321102859,0.010658499248820334,0.0018652373685435584,-0.075015835,0.015192357,-0.002538055,0.034425892,0.008320728,0.99937266,0.9994073,-0.0002866184,-0.034424704,2.910383e-11,-0.9999654,0.008325664,0.3495534423828125,0.08140285644531249,11.25514200439453,0.702596,0.002974851,20.257427,0.01461792
-0.08060490056920376,0.013323124061025418,-0.002264931090374321,-0.075015835,0.015192357,-0.002538055,0.034425892,0.008320728,0.99937266,0.9994073,-0.0002866184,-0.034424704,2.910383e-11,-0.9999654,0.008325664,0.4213794921875,0.11252747802734374,11.176133349609374,0.70876855,0.002974851,20.42114,0.0146484375
-0.08207044421591657,0.0127901990985844,-0.0035972434964768626,-0.075015835,0.015192357,-0.002538055,0.034425892,0.008320728,0.99937266,0.9994073,-0.0002866184,-0.034424704,2.910383e-11,-0.9999654,0.008325664,0.430956298828125,0.12689268798828124,11.2240173828125,0.7150682,0.002974851,20.585213,0.01461792
-0.07993874436615249,0.0127901990985844,-0.0014655436467127959,-0.075015835,0.015192357,-0.002538055,0.034425892,0.008320728,0.99937266,0.9994073,-0.0002866184,-0.034424704,2.910383e-11,-0.9999654,0.008325664,0.4429273071289062,0.09337386474609374,11.231199987792968,0.72182673,0.002974851,20.756588,0.015258789
-0.07927258816310122,0.01212404289553313,-0.0039969372183076245,-0.075015835,0.015192357,-0.002538055,0.034425892,0.008320728,0.99937266,0.9994073,-0.0002866184,-0.034424704,2.910383e-11,-0.9999654,0.008325664,0.3280056274414062,0.1005564697265625,11.264718811035156,0.7268367,0.002974851,20.928646,0.015274048
-0.08100459429103453,0.007993874436615249,-0.0013323124061025418,-0.075015835,0.015192357,-0.002538055,0.034425892,0.008320728,0.99937266,0.9994073,-0.0002866184,-0.034424704,2.910383e-11,-0.9999654,0.008325664,0.39264907226562495,0.105344873046875,11.235988391113281,0.73283404,0.002974851,21.100266,0.015274048
-0.07927258816310122,0.009725880564548555,-0.0013323124061025418,-0.075015835,0.015192357,-0.002538055,0.034425892,0.008320728,0.99937266,0.9994073,-0.0002866184,-0.034424704,2.910383e-11,-0.9999654,0.008325664,0.34237083740234375,0.105344873046875,11.283872424316405,0.7380739,0.002974851,21.27296,0.015304565
-0.08060490056920376,0.010258805526989571,-0.0003996937218307625,-0.075015835,0.015192357,-0.002538055,0.034425892,0.008320728,0.99937266,0.9994073,-0.0002866184,-0.034424704,2.910383e-11,-0.9999654,0.008325664,0.3687070556640625,0.0909796630859375,11.257536206054686,0.74372244,0.002974851,21.445425,0.015319824
-0.0814042880128653,0.011724349173702367,-0.000799387443661525,-0.075015835,0.015192357,-0.002538055,0.034425892,0.008320728,0.99937266,0.9994073,-0.0002866184,-0.034424704,2.910383e-11,-0.9999654,0.008325664,0.33518823242187495,0.086191259765625,11.238382592773437,0.7489598,0.002974851,21.621025,0.015625
-0.08113782553164478,0.010924961730040842,-0.0058621745868511835,-0.075015835,0.015192357,-0.002538055,0.034425892,0.008320728,0.99937266,0.9994073,-0.0002866184,-0.034424704,2.910383e-11,-0.9999654,0.008325664,0.4213794921875,0.08140285644531249,11.214440576171874,0.7554667,0.002974851,21.794197,0.0154418945
-0.07860643196004995,0.01052526800821008,-0.0019984686091538122,-0.075015835,0.015192357,-0.002538055,0.034425892,0.008320728,0.99937266,0.9994073,-0.0002866184,-0.034424704,2.910383e-11,-0.9999654,0.008325664,0.41419688720703124,0.05746083984375,11.197681164550781,0.7618564,0.002974851,21.96694,0.015426636
-0.08060490056920376,0.010791730489430587,-0.004130168458917879,-0.075015835,0.015192357,-0.002538055,0.034425892,0.008320728,0.99937266,0.9994073,-0.0002866184,-0.034424704,2.910383e-11,-0.9999654,0.008325664,0.39743747558593745,0.06703764648437499,11.212046374511718,0.76799965,0.002974851,22.140245,0.015457153
-0.07860643196004995,0.010658499248820334,-0.0014655436467127959,-0.075015835,0.015192357,-0.002538055,0.034425892,0.008320728,0.99937266,0.9994073,-0.0002866184,-0.034424704,2.910383e-11,-0.9999654,0.008325664,0.3591302490234375,0.10773907470703124,11.197681164550781,0.77355623,0.002974851,22.313501,0.015472412
-0.07807350699760894,0.009725880564548555,0.00013323124061025415,-0.075015835,0.015192357,-0.002538055,0.034425892,0.008320728,0.99937266,0.9994073,-0.0002866184,-0.034424704,2.910383e-11,-0.9999654,0.008325664,0.373495458984375,0.1580173095703125,11.240776794433593,0.7793351,0.002974851,22.487423,0.015472412
-0.08353598786262936,0.009459418083328047,-0.0030643185340358454,-0.075015835,0.015192357,-0.002538055,0.034425892,0.008320728,0.99937266,0.9994073,-0.0002866184,-0.034424704,2.910383e-11,-0.9999654,0.008325664,0.34237083740234375,0.10295067138671875,11.291055029296874,0.7845697,0.002974851,22.660055,0.015289307
-0.07900612568188072,0.011591117933092112,-0.0029310872934255917,-0.075015835,0.015192357,-0.002538055,0.034425892,0.008320728,0.99937266,0.9994073,-0.0002866184,-0.034424704,2.910383e-11,-0.9999654,0.008325664,0.40462008056640625,0.1484405029296875,11.238382592773437,0.79074985,0.002974851,22.83171,0.015274048
-0.07847320071943971,0.010658499248820334,-0.000799387443661525,-0.075015835,0.015192357,-0.002538055,0.034425892,0.008320728,0.99937266,0.9994073,-0.0002866184,-0.034424704,2.910383e-11,-0.9999654,0.008325664,0.35194764404296874,0.0718260498046875,11.305420239257812,0.7961416,0.002974851,23.004908,0.015319824
-0.08260336917835759,0.011191424211261349,-0.00159877488732305,-0.075015835,0.015192357,-0.002538055,0.034425892,0.008320728,0.99937266,0.9994073,-0.0002866184,-0.034424704,2.910383e-11,-0.9999654,0.008325664,0.3950432739257812,0.13646949462890623,11.190498559570312,0.80219364,0.002974851,23.176344,0.015319824
-0.07927258816310122,0.011191424211261349,-0.00013323124061025415,-0.075015835,0.015192357,-0.002538055,0.034425892,0.008320728,0.99937266,0.9994073,-0.0002866184,-0.034424704,2.910383e-11,-0.9999654,0.008325664,0.4381389038085937,0.12210428466796874,11.166556542968749,0.8089125,0.002974851,23.347584,0.015335083
-0.080205206847373,0.0095926493239383,0.0006661562030512709,-0.075015835,0.015192357,-0.002538055,0.034425892,0.008320728,0.99937266,0.9994073,-0.0002866184,-0.034424704,2.910383e-11,-0.9999654,0.008325664,0.36631285400390623,0.03591302490234375,11.214440576171874,0.814502,0.002974851,23.518703,0.015258789
-0.08007197560676275,0.010125574286379316,-0.0011990811654922875,-0.075015835,0.015192357,-0.002538055,0.034425892,0.008320728,0.99937266,0.9994073,-0.0002866184,-0.034424704,2.910383e-11,-0.9999654,0.008325664,0.40940848388671874,0.1149216796875,11.274295617675781,0.8207553,0.002974851,23.690908,0.015274048
-0.080205206847373,0.011724349173702367,-0.0011990811654922875,-0.075015835,0.015192357,-0.002538055,0.034425892,0.008320728,0.99937266,0.9994073,-0.0002866184,-0.034424704,2.910383e-11,-0.9999654,0.008325664,0.3136404174804687,0.1484405029296875,11.168950744628905,0.8255507,0.002974851,23.861673,0.015289307
-0.08113782553164478,0.008526799399056265,-0.0013323124061025418,-0.075015835,0.015192357,-0.002538055,0.034425892,0.008320728,0.99937266,0.9994073,-0.0002866184,-0.034424704,2.910383e-11,-0.9999654,0.008325664,0.3902548706054687,0.13646949462890623,11.204863769531249,0.83152336,0.002974851,24.03316,0.015304565
-0.07847320071943971,0.011990811654922875,-0.0031975497746461,-0.075015835,0.015192357,-0.002538055,0.034425892,0.008320728,0.99937266,0.9994073,-0.0002866184,-0.034424704,2.910383e-11,-0.9999654,0.008325664,0.39983167724609375,0.11731588134765625,11.271901416015623,0.8376426,0.002974851,24.205671,0.015304565
-0.07953905064432175,0.010125574286379316,-0.001732006127933304,-0.075015835,0.015192357,-0.002538055,0.034425892,0.008320728,0.99937266,0.9994073,-0.0002866184,-0.034424704,2.910383e-11,-0.9999654,0.008325664,0.354341845703125,0.14125789794921875,11.228805786132812,0.84305483,0.002974851,24.37718,0.015274048
-0.08033843808798326,0.01212404289553313,-0.00159877488732305,-0.075015835,0.015192357,-0.002538055,0.034425892,0.008320728,0.99937266,0.9994073,-0.0002866184,-0.034424704,2.910383e-11,-0.9999654,0.008325664,0.41419688720703124,0.0718260498046875,11.202469567871093,0.8493876,0.002974851,24.548458,0.015289307
-0.07900612568188072,0.009725880564548555,-0.002398162330984575,-0.075015835,0.015192357,-0.002538055,0.034425892,0.008320728,0.99937266,0.9994073,-0.0002866184,-0.034424704,2.910383e-11,-0.9999654,0.008325664,0.4213794921875,0.06703764648437499,11.25514200439453,0.85603595,0.002974851,24.726038,0.015777588
-0.080205206847373,0.011724349173702367,-0.002797856052815337,-0.075015835,0.015192357,-0.002538055,0.034425892,0.008320728,0.99937266,0.9994073,-0.0002866184,-0.034424704,2.910383e-11,-0.9999654,0.008325664,0.4213794921875,0.09816226806640624,11.259930407714844,0.86249787,0.002974851,24.89871,0.015335083
-0.08180398173469605,0.012257274136143382,-0.0026646248122050836,-0.075015835,0.015192357,-0.002538055,0.034425892,0.008320728,0.99937266,0.9994073,-0.0002866184,-0.034424704,2.910383e-11,-0.9999654,0.008325664,0.36631285400390623,0.05746083984375,11.262324609375,0.8681041,0.002974851,25.071075,0.015304565
-0.07887289444127048,0.008926493120887028,-0.0019984686091538122,-0.075015835,0.015192357,-0.002538055,0.034425892,0.008320728,0.99937266,0.9994073,-0.0002866184,-0.034424704,2.910383e-11,-0.9999654,0.008325664,0.40940848388671874,0.1484405029296875,11.200075366210937,0.87436366,0.002974851,25.242317,0.015289307
-0.07807350699760894,0.011724349173702367,-0.0011990811654922875,-0.075015835,0.015192357,-0.002538055,0.034425892,0.008320728,0.99937266,0.9994073,-0.0002866184,-0.034424704,2.910383e-11,-0.9999654,0.008325664,0.354341845703125,0.09576806640624999,11.286266625976562,0.8797759,0.002974851,25.414703,0.015274048
-0.07967228188493199,0.010658499248820334,-0.001732006127933304,-0.075015835,0.015192357,-0.002538055,0.034425892,0.008320728,0.99937266,0.9994073,-0.0002866184,-0.034424704,2.910383e-11,-0.9999654,0.008325664,0.44053310546874996,0.1197100830078125,11.231199987792968,0.8865113,0.002974851,25.58642,0.015289307
-0.07940581940371148,0.008393568158446012,-0.000799387443661525,-0.075015835,0.015192357,-0.002538055,0.034425892,0.008320728,0.99937266,0.9994073,-0.0002866184,-0.034424704,2.910383e-11,-0.9999654,0.008325664,0.39983167724609375,0.11013327636718749,11.243170996093749,0.89261836,0.002974851,25.758148,0.015274048
-0.0814042880128653,0.008793261880276773,-0.0026646248122050836,-0.075015835,0.015192357,-0.002538055,0.034425892,0.008320728,0.99937266,0.9994073,-0.0002866184,-0.034424704,2.910383e-11,-0.9999654,0.008325664,0.3711012573242187,0.07422025146484375,11.228805786132812,0.8982979,0.002974851,25.93,0.015304565
-0.07860643196004995,0.010392036767599824,-0.000799387443661525,-0.075015835,0.015192357,-0.002538055,0.034425892,0.008320728,0.99937266,0.9994073,-0.0002866184,-0.034424704,2.910383e-11,-0.9999654,0.008325664,0.39983167724609375,0.11252747802734374,11.202469567871093,0.90441716,0.002974851,26.10145,0.015304565
-0.080205206847373,0.011457886692481857,-0.00159877488732305,-0.075015835,0.015192357,-0.002538055,0.034425892,0.008320728,0.99937266,0.9994073,-0.0002866184,-0.034424704,2.910383e-11,-0.9999654,0.008325664,0.39983167724609375,0.12210428466796874,11.135431921386719,0.9105364,0.002974851,26.271873,0.015304565
-0.08300306290018834,0.010658499248820334,-0.00159877488732305,-0.075015835,0.015192357,-0.002538055,0.034425892,0.008320728,0.99937266,0.9994073,-0.0002866184,-0.034424704,2.910383e-11,-0.9999654,0.008325664,0.39983167724609375,0.0526724365234375,11.262324609375,0.91664344,0.002974851,26.443895,0.015274048
-0.07833996947882944,0.011724349173702367,0.001732006127933304,-0.075015835,0.015192357,-0.002538055,0.034425892,0.008320728,0.99937266,0.9994073,-0.0002866184,-0.034424704,2.910383e-11,-0.9999654,0.008325664,0.41419688720703124,0.105344873046875,11.259930407714844,0.92296356,0.002974851,26.615707,0.015258789
-0.07740735079455767,0.009992343045769061,-0.0035972434964768626,-0.075015835,0.015192357,-0.002538055,0.034425892,0.008320728,0.99937266,0.9994073,-0.0002866184,-0.034424704,2.910383e-11,-0.9999654,0.008325664,0.3280056274414062,0.0909796630859375,11.25514200439453,0.9279835,0.002974851,26.787962,0.015304565
-0.07993874436615249,0.008260336917835759,-0.0035972434964768626,-0.075015835,0.015192357,-0.002538055,0.034425892,0.008320728,0.99937266,0.9994073,-0.0002866184,-0.034424704,2.910383e-11,-0.9999654,0.008325664,0.39743747558593745,0.08858546142578125,11.212046374511718,0.934054,0.002974851,26.959215,0.015274048
-0.08207044421591657,0.006261868308681946,-0.000799387443661525,-0.075015835,0.015192357,-0.002538055,0.034425892,0.008320728,0.99937266,0.9994073,-0.0002866184,-0.034424704,2.910383e-11,-0.9999654,0.008325664,0.40462008056640625,0.0430956298828125,11.142614526367186,0.94022804,0.002974851,27.129238,0.015258789
-0.08180398173469605,0.011591117933092112,-0.0005329249624410166,-0.075015835,0.015192357,-0.002538055,0.034425892,0.008320728,0.99937266,0.9994073,-0.0002866184,-0.034424704,2.910383e-11,-0.9999654,0.008325664,0.3687070556640625,0.14125789794921875,11.238382592773437,0.94585407,0.002974851,27.300722,0.015258789
-0.07940581940371148,0.011191424211261349,-0.0030643185340358454,-0.075015835,0.015192357,-0.002538055,0.034425892,0.008320728,0.99937266,0.9994073,-0.0002866184,-0.034424704,2.910383e-11,-0.9999654,0.008325664,0.3806780639648437,0.06943184814453125,11.267113012695312,0.95187765,0.002974851,27.479006,0.015823364
-0.07927258816310122,0.01372281778285618,-0.0019984686091538122,-0.075015835,0.015192357,-0.002538055,0.034425892,0.008320728,0.99937266,0.9994073,-0.0002866184,-0.034424704,2.910383e-11,-0.9999654,0.008325664,0.3447650390625,0.10295067138671875,11.271901416015623,0.9571436,0.002974851,27.651173,0.015274048
-0.07967228188493199,0.00985911180515881,-0.0033307810152563544,-0.075015835,0.015192357,-0.002538055,0.034425892,0.008320728,0.99937266,0.9994073,-0.0002866184,-0.034424704,2.910383e-11,-0.9999654,0.008325664,0.39743747558593745,0.12449848632812499,11.214440576171874,0.9632201,0.002974851,27.822634,0.015289307
-0.08300306290018834,0.011591117933092112,-0.0010658499248820332,-0.075015835,0.015192357,-0.002538055,0.034425892,0.008320728,0.99937266,0.9994073,-0.0002866184,-0.034424704,2.910383e-11,-0.9999654,0.008325664,0.3280056274414062,0.105344873046875,11.240776794433593,0.96823007,0.002974851,27.994326,0.015274048
-0.08007197560676275,0.008793261880276773,-0.002531393571594829,-0.075015835,0.015192357,-0.002538055,0.034425892,0.008320728,0.99937266,0.9994073,-0.0002866184,-0.034424704,2.910383e-11,-0.9999654,0.008325664,0.3136404174804687,0.16519991455078123,11.3006318359375,0.9730206,0.002974851,28.166931,0.015274048
-0.07913935692249098,0.009725880564548555,-0.002264931090374321,-0.075015835,0.015192357,-0.002538055,0.034425892,0.008320728,0.99937266,0.9994073,-0.0002866184,-0.034424704,2.910383e-11,-0.9999654,0.008325664,0.39983167724609375,0.08858546142578125,11.250353601074218,0.97912765,0.002974851,28.33877,0.015274048
-0.0767411945915064,0.010658499248820334,-0.0029310872934255917,-0.075015835,0.015192357,-0.002538055,0.034425892,0.008320728,0.99937266,0.9994073,-0.0002866184,-0.034424704,2.910383e-11,-0.9999654,0.008325664,0.39743747558593745,0.1005564697265625,11.279084020996093,0.9852163,0.002974851,28.511564,0.015319824
-0.08033843808798326,0.010392036767599824,-0.001732006127933304,-0.075015835,0.015192357,-0.002538055,0.034425892,0.008320728,0.99937266,0.9994073,-0.0002866184,-0.034424704,2.910383e-11,-0.9999654,0.008325664,0.3399766357421875,0.0383072265625,11.173739147949219,0.9904247,0.002974851,28.682743,0.015319824
-0.08273660041896783,0.012656967857974145,-0.002398162330984575,-0.075015835,0.015192357,-0.002538055,0.034425892,0.008320728,0.99937266,0.9994073,-0.0002866184,-0.034424704,2.910383e-11,-0.9999654,0.008325664,0.354341845703125,0.062249243164062495,11.283872424316405,0.99584776,0.002974851,28.855438,0.015304565
-0.07913935692249098,0.012923430339194655,0.0002664624812205083,-0.075015835,0.015192357,-0.002538055,0.034425892,0.008320728,0.99937266,0.9994073,-0.0002866184,-0.034424704,2.910383e-11,-0.9999654,0.008325664,0.430956298828125,0.1149216796875,11.274295617675781,1.0024302,0.002974851,29.027643,0.015274048
-0.08420214406568063,0.0075941807147844875,-0.0003996937218307625,-0.075015835,0.015192357,-0.002538055,0.034425892,0.008320728,0.99937266,0.9994073,-0.0002866184,-0.034424704,2.910383e-11,-0.9999654,0.008325664,0.35673604736328124,0.12449848632812499,11.259930407714844,1.007879,0.002974851,29.199629,0.015274048
-0.07580857590723461,0.011191424211261349,-0.0021316998497640663,-0.075015835,0.015192357,-0.002538055,0.034425892,0.008320728,0.99937266,0.9994073,-0.0002866184,-0.034424704,2.910383e-11,-0.9999654,0.008325664,0.4333505004882812,0.0718260498046875,11.212046374511718,1.0145179,0.002974851,29.371395,0.015319824
-0.07980551312554225,0.011191424211261349,-0.0057289433462409285,-0.075015835,0.015192357,-0.002538055,0.034425892,0.008320728,0.99937266,0.9994073,-0.0002866184,-0.034424704,2.910383e-11,-0.9999654,0.008325664,0.35194764404296874,0.05985504150390625,11.288660827636718,1.0199043,0.002974851,29.544163,0.015304565
-0.07820673823821919,0.011058192970651094,-0.0002664624812205083,-0.075015835,0.015192357,-0.002538055,0.034425892,0.008320728,0.99937266,0.9994073,-0.0002866184,-0.034424704,2.910383e-11,-0.9999654,0.008325664,0.3758896606445312,0.07900865478515624,11.279084020996093,1.025657,0.002974851,29.716784,0.015304565
-0.07767381327577817,0.008926493120887028,-0.0010658499248820332,-0.075015835,0.015192357,-0.002538055,0.034425892,0.008320728,0.99937266,0.9994073,-0.0002866184,-0.034424704,2.910383e-11,-0.9999654,0.008325664,0.3950432739257812,0.05027823486328125,11.219228979492186,1.031685,0.002974851,29.887976,0.015258789
-0.07820673823821919,0.010791730489430587,-0.0019984686091538122,-0.075015835,0.015192357,-0.002538055,0.034425892,0.008320728,0.99937266,0.9994073,-0.0002866184,-0.034424704,2.910383e-11,-0.9999654,0.008325664,0.44053310546874996,0.06703764648437499,11.245565197753905,1.0384138,0.002974851,30.05974,0.015274048
-0.07820673823821919,0.009192955602107537,-0.004663093421358896,-0.075015835,0.015192357,-0.002538055,0.034425892,0.008320728,0.99937266,0.9994073,-0.0002866184,-0.034424704,2.910383e-11,-0.9999654,0.008325664,0.36631285400390623,0.062249243164062495,11.238382592773437,1.0440927,0.002974851,30.233969,0.01550293
-0.07860643196004995,0.010791730489430587,-0.0013323124061025418,-0.075015835,0.015192357,-0.002538055,0.034425892,0.008320728,0.99937266,0.9994073,-0.0002866184,-0.034424704,2.910383e-11,-0.9999654,0.008325664,0.36391865234375,0.09576806640624999,11.267113012695312,1.0496845,0.002974851,30.407095,0.015365601
-0.08326952538140886,0.0127901990985844,-0.0018652373685435584,-0.075015835,0.015192357,-0.002538055,0.034425892,0.008320728,0.99937266,0.9994073,-0.0002866184,-0.034424704,2.910383e-11,-0.9999654,0.008325664,0.39983167724609375,0.0909796630859375,11.2240173828125,1.0557977,0.002974851,30.578703,0.015289307
-0.08286983165957809,0.011591117933092112,-0.002797856052815337,-0.075015835,0.015192357,-0.002538055,0.034425892,0.008320728,0.99937266,0.9994073,-0.0002866184,-0.034424704,2.910383e-11,-0.9999654,0.008325664,0.40222587890625,0.07422025146484375,11.2240173828125,1.0619475,0.002974851,30.75031,0.015289307
-0.08207044421591657,0.011457886692481857,-0.00013323124061025415,-0.075015835,0.015192357,-0.002538055,0.034425892,0.008320728,0.99937266,0.9994073,-0.0002866184,-0.034424704,2.910383e-11,-0.9999654,0.008325664,0.40462008056640625,0.09576806640624999,11.219228979492186,1.0681276,0.002974851,30.921675,0.015274048
-0.07900612568188072,0.0029310872934255917,0.08993108741192156,-0.075015835,0.015192357,-0.002538055,0.034449123,0.008224015,0.99937266,0.9994025,-0.0030933272,-0.034424704,-0.0028082775,-0.9999615,0.008325664,0.4836287353515625,1.1923124267578125,11.176133349609374,1.0755146,0.021186288,31.092379,0.015274048
-0.0863338439154447,0.013856049023466432,0.432468607020885,-0.075015835,0.015192357,-0.002538055,0.034508523,0.0077622845,0.99937433,0.999352,-0.010512848,-0.034426104,-0.010239045,-0.9999146,0.008120037,0.5458779785156249,0.9002198242187499,11.367669482421874,1.0838606,0.034950025,31.266182,0.015289307
-0.09059724361497283,0.013323124061025418,0.4929555902579404,-0.075015835,0.015192357,-0.002538055,0.034719672,0.0075168014,0.9993689,0.9992469,-0.017599873,-0.034583066,-0.017328812,-0.99981683,0.008122202,0.47884033203125,-0.34715924072265625,11.310208642578125,1.091189,0.029636905,31.43928,0.015304565
-0.07740735079455767,0.014655436467127957,0.32654977073573294,-0.075015835,0.015192357,-0.002538055,0.034750443,0.007206981,0.9993701,0.9991645,-0.021770824,-0.034586303,-0.021507852,-0.9997371,0.007957507,0.2561795776367187,-0.7015010864257812,11.350910070800781,1.095102,0.018922143,31.612654,0.015274048
-0.08233690669713707,0.011457886692481857,0.15441500786728457,-0.075015835,0.015192357,-0.002538055,0.034765124,0.0071358215,0.9993701,0.999118,-0.023816371,-0.034586307,-0.02355457,-0.99969095,0.007957507,0.39264907226562495,-0.19632453613281248,11.135431921386719,1.1011053,0.018922143,31.782907,0.015289307
-0.080205206847373,0.009326186842717792,0.1008560491419624,-0.075015835,0.015192357,-0.002538055,0.034775883,0.007083211,0.9993701,0.9990808,-0.025328083,-0.034586307,-0.025067149,-0.9996542,0.007957507,0.3854664672851562,-0.016759411621093748,11.168950744628905,1.1070048,0.018922143,31.953844,0.015304565
-0.0814042880128653,0.01212404289553313,0.11950842282739799,-0.075015835,0.015192357,-0.002538055,0.03479083,0.0070094243,0.9993701,0.9990248,-0.027447397,-0.034586307,-0.027187679,-0.99959874,0.007957507,0.32561142578124996,0.3687070556640625,11.291055029296874,1.1120477,0.024632556,32.128716,0.015487671
-0.080205206847373,0.012656967857974145,0.18119448722994566,-0.075015835,0.015192357,-0.002538055,0.034812216,0.006902418,0.9993701,0.9989357,-0.03051902,-0.034586307,-0.030261068,-0.9995104,0.007957507,0.3447650390625,0.23702596435546874,11.264718811035156,1.1173768,0.028296303,32.302837,0.015457153
-0.08380245034384987,0.013189892820415163,0.22915773384963717,-0.075015835,0.015192357,-0.002538055,0.03483818,0.006770153,0.9993701,0.99881256,-0.034312714,-0.034586307,-0.034056947,-0.9993883,0.007957507,0.34715924072265625,0.19871873779296872,11.252747802734374,1.1227376,0.028296303,32.4766,0.0154418945
-0.08260336917835759,0.0095926493239383,0.32215313979559457,-0.075015835,0.015192357,-0.002538055,0.034874603,0.006421516,0.9993711,0.9986079,-0.03982224,-0.0345921,-0.039575063,-0.9991862,0.007801362,0.33039982910156246,0.5027823486328125,11.145008728027342,1.1278397,0.036060214,32.6487,0.0154418945
-0.08566768771239343,0.009725880564548555,0.4231424201781672,-0.075015835,0.015192357,-0.002538055,0.034917947,0.006010068,0.9993722,0.9983059,-0.046779074,-0.034599382,-0.046541758,-0.99888724,0.0076333163,0.4477157104492187,0.26815058593749996,11.286266625976562,1.1349992,0.040348265,32.82918,0.015991211
-0.08620061267483445,0.01372281778285618,0.42447473258426976,-0.075015835,0.015192357,-0.002538055,0.034955595,0.005787082,0.9993722,0.99798703,-0.05314981,-0.034599382,-0.052916206,-0.99856985,0.0076333163,0.45968671875,-0.10295067138671875,11.197681164550781,1.1421326,0.040348265,33.00295,0.0155181885
-0.08766615632154724,0.010924961730040842,0.3480000004739839,-0.075015835,0.015192357,-0.002538055,0.034984555,0.0056093493,0.9993722,0.997704,-0.05822128,-0.034599382,-0.057990644,-0.99828804,0.0076333163,0.430956298828125,-0.19153613281249998,11.192892761230468,1.1487348,0.040348265,33.174423,0.015319824
-0.07980551312554225,0.009459418083328047,0.2819173051312978,-0.075015835,0.015192357,-0.002538055,0.035007607,0.0054636286,0.9993722,0.99745286,-0.062375113,-0.03459938,-0.06214691,-0.9980378,0.0076333154,0.36152445068359373,0.01915361328125,11.099518896484375,1.1542733,0.040348265,33.344467,0.015319824
-0.07767381327577817,0.013989280264076687,0.25780245058084184,-0.075015835,0.015192357,-0.002538055,0.035029814,0.005319388,0.9993722,0.9971875,-0.066483036,-0.03459938,-0.06625725,-0.9977734,0.007633316,0.3902548706054687,0.14125789794921875,11.279084020996093,1.16024,0.040348265,33.51692,0.015289307
-0.07927258816310122,0.01185758041431262,0.29923736641063087,-0.075015835,0.015192357,-0.002538055,0.035054572,0.005153707,0.9993722,0.99686205,-0.07119701,-0.034599382,-0.07097399,-0.997449,0.007633316,0.4165910888671875,0.25139117431640623,11.133037719726563,1.1666094,0.044191863,33.687134,0.015289307
-0.08326952538140886,0.016120980113840753,0.35905819344463497,-0.075015835,0.015192357,-0.002538055,0.035084054,0.0049490263,0.9993722,0.99642956,-0.07701391,-0.034599382,-0.07679432,-0.99701774,0.007633316,0.34715924072265625,0.24660277099609373,11.228805786132812,1.171912,0.047958486,33.858643,0.015274048
-0.08646707515605495,0.011058192970651094,0.4460581935631309,-0.075015835,0.015192357,-0.002538055,0.0351179,0.0045270226,0.999373,0.99585396,-0.08412439,-0.03461319,-0.083914936,-0.996445,0.007462525,0.49320554199218747,0.34237083740234375,11.145008728027342,1.1794678,0.053203546,34.02938,0.015319824
-0.08646707515605495,0.01345635530163567,0.49681929623563775,-0.075015835,0.015192357,-0.002538055,0.035151586,0.004257572,0.999373,0.99517953,-0.09175907,-0.03461319,-0.09155416,-0.9957722,0.007462525,0.47884033203125,-0.00239420166015625,11.183315954589844,1.1867962,0.053203546,34.200535,0.015304565
-0.08180398173469605,0.009725880564548555,0.5114747327027658,-0.075015835,0.015192357,-0.002538055,0.03518374,0.003983136,0.999373,0.99443316,-0.09952219,-0.03461319,-0.09932191,-0.9950274,0.007462525,0.33518823242187495,0.17477672119140625,11.29344923095703,1.1919261,0.053203546,34.373375,0.015304565
-0.07594180714784488,0.008793261880276773,0.5176033697708374,-0.075015835,0.015192357,-0.002538055,0.035213158,0.0034147976,0.9993741,0.99361026,-0.10741777,-0.034643047,-0.10723222,-0.99420816,0.0071754963,0.2657563842773437,0.15562310791015624,11.166556542968749,1.1959813,0.053203546,34.543762,0.015258789
-0.0848683002687319,0.012656967857974145,0.535722818493832,-0.075015835,0.015192357,-0.002538055,0.035240427,0.003120859,0.9993741,0.99267936,-0.115704745,-0.034643047,-0.115524195,-0.9932788,0.0071754963,0.39264907226562495,0.14125789794921875,11.348515869140625,1.2019966,0.053203546,34.71762,0.015319824
-0.0814042880128653,0.010258805526989571,0.569830016090057,-0.075015835,0.015192357,-0.002538055,0.03526736,0.002800141,0.9993741,0.9915857,-0.12473055,-0.034643047,-0.12455546,-0.9921867,0.0071754963,0.3806780639648437,0.22744915771484372,11.039663854980468,1.2078285,0.056688026,34.886745,0.015319824
-0.07434303226052183,0.011457886692481857,0.6606937221862504,-0.075015835,0.015192357,-0.002538055,0.035293832,0.0021809307,0.9993747,0.9902039,-0.13525483,-0.03467481,-0.13509463,-0.9908085,0.006933227,0.3016694091796875,0.40222587890625,11.17852755126953,1.2124408,0.06283778,35.05766,0.015289307
-0.08366921910323963,0.009192955602107537,0.7639479336591974,-0.075015835,0.015192357,-0.002538055,0.03531634,0.0015765418,0.99937505,0.98851264,-0.14710067,-0.034700442,-0.14695403,-0.9891203,0.0067534884,0.4213794921875,0.26815058593749996,11.145008728027342,1.2188963,0.0669458,35.228397,0.015319824
-0.08220367545652682,0.007993874436615249,0.7869969382847714,-0.075015835,0.015192357,-0.002538055,0.035331644,0.0009857055,0.9993753,0.9866851,-0.15889226,-0.0347263,-0.15875874,-0.98729545,0.0065865046,0.411802685546875,0.076614453125,11.066000073242186,1.2251924,0.0669458,35.39759,0.015289307
-0.07567534466662437,0.016387442595061263,0.7414318539960645,-0.075015835,0.015192357,-0.002538055,0.03534068,0.0005770441,0.9993753,0.9847815,-0.17029221,-0.034726296,-0.17016578,-0.98539346,0.0065865046,0.316034619140625,0.10295067138671875,11.233594189453123,1.2302028,0.0669458,35.575687,0.015853882
-0.07900612568188072,0.012523736617363892,0.6844088830148756,-0.075015835,0.015192357,-0.002538055,0.035344742,0.00021410789,0.9993753,0.9829809,-0.18039574,-0.034726296,-0.1802756,-0.9835941,0.0065865046,0.3016694091796875,-0.12449848632812499,11.159373937988281,1.234829,0.0669458,35.74682,0.015335083
-0.08500153150934216,0.011058192970651094,0.6297840743646714,-0.075015835,0.015192357,-0.002538055,0.035345167,-0.00012546752,0.9993753,0.9812024,-0.18983115,-0.034726296,-0.1897169,-0.98181677,0.0065865046,0.3184288208007812,0.0143652099609375,11.159373937988281,1.2396927,0.0669458,35.917267,0.015274048
-0.08646707515605495,0.017852986241774057,0.636312405154574,-0.075015835,0.015192357,-0.002538055,0.035342187,-0.00047572723,0.9993753,0.9792731,-0.19954543,-0.0347263,-0.19943726,-0.9798885,0.0065865046,0.27293898925781246,-0.00239420166015625,11.444283935546874,1.2438699,0.0669458,36.092415,0.015304565
-0.08193721297530632,0.0063950995492922,0.7070581939186188,-0.075015835,0.015192357,-0.002538055,0.035333335,-0.0010956132,0.9993751,0.97696316,-0.21055636,-0.034771807,-0.21046285,-0.97758114,0.0063692844,0.5482721801757812,0.4740519287109375,11.274295617675781,1.2522526,0.07419372,36.26479,0.015289307
-0.07687442583211665,0.01345635530163567,0.8029846871580019,-0.075015835,0.015192357,-0.002538055,0.035316575,-0.0015441609,0.9993751,0.9742109,-0.22294413,-0.034771807,-0.22285847,-0.97483003,0.0063692844,0.36152445068359373,0.35194764404296874,11.384428894042967,1.2577856,0.07958013,36.439022,0.015304565
-0.08566768771239343,0.014655436467127957,0.8833231252459851,-0.075015835,0.015192357,-0.002538055,0.0352921,-0.0020279821,0.9993751,0.97106427,-0.23627345,-0.034771807,-0.23619628,-0.9716845,0.0063692844,0.34237083740234375,0.2753331909179687,11.540052001953125,1.2630149,0.08378558,36.615284,0.015274048
-0.08127105677225505,0.02717917308449185,0.9242251161133332,-0.075015835,0.015192357,-0.002538055,0.035258528,-0.0027094265,0.9993747,0.967618,-0.25000665,-0.034815952,-0.2499446,-0.9682404,0.006193175,0.21068974609375,0.02633621826171875,11.822567797851562,1.2662426,0.08378558,36.796402,0.015319824
-0.08100459429103453,0.009992343045769061,0.9183629415264819,-0.075015835,0.015192357,-0.002538055,0.035215076,-0.003424156,0.99937403,0.96397895,-0.2636829,-0.034871332,-0.26363719,-0.9646034,0.0059847976,0.34715924072265625,-0.033518823242187495,11.183315954589844,1.2715452,0.08378558,36.967216,0.015274048
-0.08260336917835759,0.010258805526989571,0.9579326199877275,-0.075015835,0.015192357,-0.002538055,0.035160143,-0.0039485316,0.99937403,0.95994264,-0.27801833,-0.034871332,-0.27798188,-0.96056765,0.0059847967,0.36391865234375,0.19632453613281248,11.161768139648437,1.2771147,0.08378558,37.138042,0.015304565
-0.09566003075816248,0.017586523760553547,1.0014992356672805,-0.075015835,0.015192357,-0.002538055,0.035094965,-0.004491107,0.99937403,0.95553416,-0.29281142,-0.034871332,-0.29278466,-0.9561597,0.005984797,0.16519991455078123,-0.1197100830078125,11.688492504882811,1.2771147,0.08378558,37.31711,0.015319824
-0.0941944871114497,0.011591117933092112,1.0045635542013165,-0.075015835,0.015192357,-0.002538055,0.035021707,-0.0050305673,0.99937403,0.9509157,-0.30747917,-0.034871332,-0.30746204,-0.95154154,0.005984797,0.3016694091796875,0.04548983154296875,11.066000073242186,1.2817224,0.08378558,37.48613,0.015274048
-0.0866003063966652,0.017852986241774057,0.9709892815675323,-0.075015835,0.015192357,-0.002538055,0.03494358,-0.0057199374,0.9993731,0.9463464,-0.32126093,-0.03492824,-0.3212592,-0.9469735,0.005812961,0.18914193115234373,-0.00718260498046875,11.152191333007812,1.2817224,0.08378558,37.656467,0.015274048
-0.08873200624642928,0.0095926493239383,0.8661362952072623,-0.075015835,0.015192357,-0.002538055,0.034866974,-0.0061697313,0.9993731,0.9421282,-0.3334285,-0.03492824,-0.33343485,-0.9427553,0.005812961,0.3184288208007812,-0.143652099609375,11.118672509765624,1.2865862,0.08378558,37.826294,0.015274048
-0.0747427259823526,0.01345635530163567,0.7678116396368948,-0.075015835,0.015192357,-0.002538055,0.034791682,-0.006772549,0.9993718,0.93818504,-0.3443606,-0.034995236,-0.34438112,-0.93881303,0.0056269746,0.21308394775390624,-0.24181436767578124,11.319785449218749,1.2898474,0.08008471,37.99954,0.015304565
-0.08620061267483445,0.017852986241774057,0.7442297100488797,-0.075015835,0.015192357,-0.002538055,0.034712058,-0.007169485,0.9993718,0.9341907,-0.35505372,-0.034995236,-0.35508147,-0.9348185,0.005626975,0.20829554443359374,-0.12449848632812499,11.238382592773437,1.293032,0.08008471,38.171364,0.015289307
-0.08380245034384987,0.009992343045769061,0.7696768770054383,-0.075015835,0.015192357,-0.002538055,0.034620773,-0.00759806,0.9993718,0.92973,-0.3665754,-0.034995236,-0.36661088,-0.93035734,0.0056269746,0.11252747802734374,0.05027823486328125,11.235988391113281,1.293032,0.08008471,38.34864,0.015777588
-0.0912633998180241,0.009992343045769061,0.8020520684737301,-0.075015835,0.015192357,-0.002538055,0.03452434,-0.008024854,0.9993718,0.925134,-0.37802443,-0.034995236,-0.37806767,-0.92576087,0.0056269746,0.430956298828125,0.105344873046875,11.152191333007812,1.2996211,0.08008471,38.51915,0.015289307
-0.0834027566220191,0.016653905076281773,0.809379786707294,-0.075015835,0.015192357,-0.002538055,0.03442009,-0.00865873,0.99937016,0.9203378,-0.38954884,-0.03507322,-0.38960704,-0.92096514,0.005439346,0.3112462158203125,0.296881005859375,11.341333264160156,1.3043704,0.08461475,38.692204,0.015258789
-0.08939816244948055,0.018785604926045835,0.8215038296028272,-0.075015835,0.015192357,-0.002538055,0.03430929,-0.009087841,0.99937016,0.91540194,-0.40101025,-0.03507322,-0.4010763,-0.91602856,0.0054393467,0.45010991210937495,0.02633621826171875,11.226411584472656,1.3112385,0.08461475,38.863506,0.015258789
-0.08380245034384987,0.016387442595061263,0.8184395110687913,-0.075015835,0.015192357,-0.002538055,0.034190107,-0.00978273,0.99936765,0.9102637,-0.41253167,-0.035179965,-0.41261485,-0.9108908,0.0051996354,0.1197100830078125,-0.06703764648437499,11.042058056640624,1.3112385,0.08461475,39.03216,0.015274048
-0.08233690669713707,0.004663093421358896,0.873330782200216,-0.075015835,0.015192357,-0.002538055,0.034051817,-0.010253737,0.99936765,0.90448266,-0.42505708,-0.035179965,-0.4251489,-0.9051086,0.0051996354,0.40462008056640625,0.2657563842773437,11.250353601074218,1.3174187,0.08867393,39.204,0.015274048
-0.08859877500581902,0.006794793271122962,0.9856447180346604,-0.075015835,0.015192357,-0.002538055,0.033887476,-0.011032884,0.999365,0.8978121,-0.43896243,-0.03529004,-0.43907285,-0.8984377,0.0049698683,0.39983167724609375,0.24181436767578124,11.348515869140625,1.323538,0.092374794,39.37768,0.015304565
-0.0764747321102859,0.016653905076281773,1.0693139371379,-0.075015835,0.015192357,-0.002538055,0.033697676,-0.0117561845,0.9993631,0.89037627,-0.45384985,-0.035361692,-0.4539764,-0.8910007,0.004826255,0.33518823242187495,0.27293898925781246,11.200075366210937,1.3286525,0.09653951,39.54858,0.015258789
-0.08753292508093698,0.012656967857974145,1.1131470152986735,-0.075015835,0.015192357,-0.002538055,0.033490527,-0.012652038,0.99935913,0.8825452,-0.46888486,-0.035512026,-0.46903354,-0.88316876,0.004537204,0.22744915771484372,0.06703764648437499,11.056423266601563,1.3321301,0.09653951,39.717625,0.015289307
-0.09219601850229589,0.014522205226517705,1.076774886612074,-0.075015835,0.015192357,-0.002538055,0.03327728,-0.013419728,0.99935627,0.87475747,-0.4832503,-0.035617582,-0.48341697,-0.8753794,0.0043422454,0.13646949462890623,-0.01915361328125,10.991779821777342,1.3321301,0.09653951,39.885513,0.015274048
-0.08646707515605495,0.015987748873230498,1.0445329263843925,-0.075015835,0.015192357,-0.002538055,0.03305679,-0.01419184,0.99935293,0.8669285,-0.49714983,-0.035736486,-0.49733514,-0.86754876,0.004130863,0.2346317626953125,0.023942016601562498,11.0707884765625,1.335721,0.09653951,40.054947,0.015304565
-0.0848683002687319,0.013589586542245924,1.053192957024059,-0.075015835,0.015192357,-0.002538055,0.032820076,-0.014730995,0.99935293,0.8586753,-0.51127267,-0.035736486,-0.51146805,-0.85929245,0.004130863,0.37828386230468747,0.047884033203124995,11.334150659179686,1.341499,0.09653951,40.228065,0.015274048
-0.09379479338961894,0.005462480865020421,1.1373951010897398,-0.075015835,0.015192357,-0.002538055,0.0325503,-0.015317883,0.99935293,0.84935725,-0.52660716,-0.035736483,-0.5268136,-0.8499709,0.004130863,0.3136404174804687,0.21308394775390624,11.092336291503905,1.3462943,0.09979742,40.39766,0.015289307
-0.08286983165957809,0.011324655451871604,1.2616998485791069,-0.075015835,0.015192357,-0.002538055,0.0322426,-0.015955389,0.99935293,0.83883125,-0.5432175,-0.035736486,-0.54343593,-0.8394406,0.004130863,0.28969840087890625,0.16041151123046873,11.027692846679686,1.3507191,0.09979742,40.566097,0.015274048
-0.07580857590723461,0.017453292519943295,1.3459019926447877,-0.075015835,0.015192357,-0.002538055,0.031900816,-0.017017573,0.9993464,0.8273907,-0.56047463,-0.035955872,-0.5607199,-0.8279968,0.0037994133,0.19393033447265623,0.2920926025390625,11.015721838378905,1.3507191,0.10426777,40.734688,0.015304565
-0.09139663105863435,0.02078407353519965,1.367085759901818,-0.075015835,0.015192357,-0.002538055,0.031537417,-0.017681945,0.9993464,0.8154711,-0.5776799,-0.035955872,-0.5779378,-0.816072,0.0037994133,0.12449848632812499,-0.1867477294921875,11.240776794433593,1.3507191,0.10426777,40.906723,0.015304565
-0.08220367545652682,0.015987748873230498,1.3505650860661464,-0.075015835,0.015192357,-0.002538055,0.031165905,-0.018328836,0.9993464,0.80337936,-0.59438103,-0.035955872,-0.5946513,-0.80397475,0.0037994133,0.11731588134765625,-0.040701428222656245,11.410765112304686,1.3507191,0.10426777,41.08136,0.015304565
-0.09992343045769063,0.017986217482384312,1.3144594198607678,-0.075015835,0.015192357,-0.002538055,0.030795565,-0.018944474,0.9993464,0.7914106,-0.6102266,-0.035955872,-0.6105086,-0.79200053,0.0037994133,0.3064578125,-0.34715924072265625,11.437101330566406,1.3554,0.09896524,41.25605,0.015274048
-0.09259571222412663,0.00985911180515881,1.2766217475274555,-0.075015835,0.015192357,-0.002538055,0.030421538,-0.019539448,0.9993464,0.7794006,-0.6254934,-0.035955872,-0.62578684,-0.7799849,0.0037994133,0.34237083740234375,-0.2657563842773437,11.288660827636718,1.3606398,0.094897956,41.428818,0.015304565
-0.07754058203516792,0.013589586542245924,1.2483767245180817,-0.075015835,0.015192357,-0.002538055,0.030042034,-0.02032645,0.99934214,0.7673517,-0.64021015,-0.036089756,-0.6405223,-0.76793104,0.0036356782,0.29448680419921874,-0.22026655273437498,11.29344923095703,1.3651378,0.091533594,41.601315,0.015274048
-0.08393568158446013,0.01052526800821008,1.2430474748936713,-0.075015835,0.015192357,-0.002538055,0.029646311,-0.021098293,0.999338,0.7549811,-0.6547454,-0.0362204,-0.65507585,-0.75555503,0.0034819713,0.2537853759765625,0.011971008300781249,11.305420239257812,1.3690219,0.091533594,41.774338,0.015304565
-0.09059724361497283,0.01185758041431262,1.2450459435028252,-0.075015835,0.015192357,-0.002538055,0.02923699,-0.021826465,0.9993344,0.74235797,-0.66901773,-0.036330793,-0.66936517,-0.74292606,0.0033570116,0.258573779296875,-0.05985504150390625,11.269507214355468,1.3729714,0.091533594,41.94647,0.015274048
-0.08100459429103453,0.017719755001163805,1.2555712115110353,-0.075015835,0.015192357,-0.002538055,0.028815398,-0.0223801,0.9993344,0.7294635,-0.68305427,-0.036330793,-0.68341243,-0.7300248,0.0033570111,0.1197100830078125,-0.26815058593749996,11.350910070800781,1.3729714,0.087437846,42.119843,0.015274048
-0.08366921910323963,0.011191424211261349,1.255970905232866,-0.075015835,0.015192357,-0.002538055,0.028377375,-0.022932962,0.9993344,0.7161228,-0.69702816,-0.036330793,-0.6973971,-0.71667707,0.0033570111,0.19632453613281248,-0.06464344482421874,11.1474029296875,1.3729714,0.087437846,42.28994,0.015258789
-0.09685911192365478,0.016254211354451008,1.2786202161366091,-0.075015835,0.015192357,-0.002538055,0.027915163,-0.02366814,0.9993303,0.7021564,-0.71108896,-0.03645538,-0.71147525,-0.7027038,0.0032314248,0.3447650390625,0.16759411621093748,11.444283935546874,1.3782374,0.087437846,42.46474,0.015274048
-0.0848683002687319,0.006661562030512709,1.3625558977210692,-0.075015835,0.015192357,-0.002538055,0.027396334,-0.024266811,0.9993303,0.6866006,-0.72612035,-0.03645538,-0.7265184,-0.6871395,0.0032314248,0.3902548706054687,0.29927520751953124,10.98699141845703,1.3843529,0.09212772,42.636917,0.015670776
-0.09312863718656766,0.016120980113840753,1.4206447186271403,-0.075015835,0.015192357,-0.002538055,0.026851276,-0.025064075,0.9993254,0.6703891,-0.74110657,-0.036600642,-0.7415237,-0.67091966,0.0030969689,0.4070142822265625,0.18435352783203124,11.111489904785156,1.3906566,0.09212772,42.80901,0.015487671
-0.08753292508093698,0.01572128639200999,1.4275727431388734,-0.075015835,0.015192357,-0.002538055,0.026289538,-0.025652664,0.9993254,0.65380967,-0.7557734,-0.036600642,-0.7562021,-0.6543308,0.0030969684,0.2609679809570312,-0.040701428222656245,11.25514200439453,1.3947064,0.09212772,42.98367,0.0155181885
-0.0932618684271779,0.013189892820415163,1.4173139376118837,-0.075015835,0.015192357,-0.002538055,0.02572067,-0.026223008,0.9993254,0.6370788,-0.7699292,-0.03660064,-0.7703693,-0.63759047,0.0030969684,0.28490999755859375,0.05027823486328125,11.183315954589844,1.3991059,0.09212772,43.15636,0.0154418945
-0.07780704451638844,0.0095926493239383,1.432102605319622,-0.075015835,0.015192357,-0.002538055,0.02512591,-0.02699309,0.99932003,0.61971194,-0.7839681,-0.036757536,-0.784427,-0.62021416,0.0029699674,0.2442085693359375,0.229843359375,11.0707884765625,1.4028844,0.09568395,43.327652,0.015472412
-0.08979785617131131,0.01185758041431262,1.4504885165238373,-0.075015835,0.015192357,-0.002538055,0.024510352,-0.027835412,0.9993122,0.6019549,-0.7976732,-0.036983117,-0.7981537,-0.60244733,0.0027955854,0.047884033203124995,0.0,11.161768139648437,1.4028844,0.09568395,43.500862,0.0155181885
-0.0834027566220191,0.012923430339194655,1.430503830432299,-0.075015835,0.015192357,-0.002538055,0.023877218,-0.028380381,0.9993122,0.5838368,-0.8110283,-0.036983117,-0.8115198,-0.58431834,0.0027955857,0.16998831787109375,-0.009576806640625,11.362881079101562,1.4028844,0.09568395,43.680836,0.015838623
-0.0866003063966652,0.016787136316892024,1.3720153158043973,-0.075015835,0.015192357,-0.002538055,0.023280265,-0.029155988,0.999304,0.5668838,-0.8229567,-0.037217215,-0.8234686,-0.5673557,0.0026305886,0.17238251953125,-0.086191259765625,11.25514200439453,1.4028844,0.09568395,43.85378,0.015365601
-0.08580091895300368,0.01732006127933304,1.2906110277915321,-0.075015835,0.015192357,-0.002538055,0.022709213,-0.029834962,0.9992971,0.55084616,-0.83376795,-0.037411004,-0.8342977,-0.5513086,0.0024997366,0.14125789794921875,-0.3064578125,11.166556542968749,1.4028844,0.0910031,44.024338,0.015274048
-0.0912633998180241,0.01345635530163567,1.2048101088385283,-0.075015835,0.015192357,-0.002538055,0.022160018,-0.030400706,0.9992924,0.5355522,-0.84366727,-0.03754248,-0.8442113,-0.5360052,0.0024145122,0.06703764648437499,-0.18435352783203124,11.171344946289063,1.4028844,0.0910031,44.19514,0.015289307
-0.08979785617131131,0.01705359879811253,1.1484532940603909,-0.075015835,0.015192357,-0.002538055,0.021623911,-0.030784344,0.9992924,0.5206866,-0.8529221,-0.03754248,-0.85347396,-0.52112997,0.0024145122,0.201112939453125,-0.24660277099609373,11.125855114746093,1.4059653,0.087225184,44.365585,0.015319824
-0.09059724361497283,0.01732006127933304,1.137928026052181,-0.075015835,0.015192357,-0.002538055,0.021082569,-0.031157577,0.9992924,0.5057,-0.8618922,-0.03754248,-0.86245173,-0.5061336,0.0024145122,0.1484405029296875,0.03591302490234375,11.326968054199218,1.4059653,0.087225184,44.538765,0.015289307
-0.07074578876404496,0.008926493120887028,1.1524502312786984,-0.075015835,0.015192357,-0.002538055,0.020526478,-0.031703204,0.9992868,0.49037284,-0.8706972,-0.037696388,-0.871271,-0.49079683,0.0023259535,0.277727392578125,0.11252747802734374,11.159373937988281,1.4102243,0.087225184,44.709896,0.015335083
-0.08220367545652682,0.016387442595061263,1.1512511501132063,-0.075015835,0.015192357,-0.002538055,0.019963546,-0.032060668,0.9992868,0.47492388,-0.87921923,-0.037696388,-0.87980044,-0.47533768,0.0023259535,0.15322890625,-0.062249243164062495,11.384428894042967,1.4102243,0.087225184,44.884304,0.015319824
-0.08273660041896783,0.015588055151399738,1.113413477779894,-0.075015835,0.015192357,-0.002538055,0.01942565,-0.03257748,0.99928063,0.460226,-0.886994,-0.037863437,-0.88758916,-0.46063045,0.002237427,0.15083470458984374,-0.16998831787109375,11.2240173828125,1.4102243,0.087225184,45.05574,0.015274048
-0.08713323135910622,0.012257274136143382,0.9880428803656449,-0.075015835,0.015192357,-0.002538055,0.01894844,-0.03301972,0.99927527,0.44727254,-0.89358974,-0.038008727,-0.894197,-0.44766864,0.002163313,0.09816226806640624,-0.48123453369140623,11.180921752929686,1.4102243,0.07985275,45.22703,0.015319824
-0.08326952538140886,0.00985911180515881,0.8758621757718109,-0.075015835,0.015192357,-0.002538055,0.01850666,-0.03326934,0.99927527,0.4353228,-0.8994718,-0.03800873,-0.90008414,-0.43571067,0.0021633129,0.1197100830078125,-0.25139117431640623,11.262324609375,1.4102243,0.07599381,45.399914,0.015350342
-0.08513476274995241,0.01345635530163567,0.8384241971603295,-0.075015835,0.015192357,-0.002538055,0.018080829,-0.03369731,0.9992687,0.4238489,-0.90492773,-0.038185075,-0.9055524,-0.42422932,0.002079271,0.12449848632812499,-0.086191259765625,11.154585534667968,1.4102243,0.07599381,45.57046,0.015289307
-0.09086370609619333,0.012257274136143382,0.8064486994138684,-0.075015835,0.015192357,-0.002538055,0.017666519,-0.033916358,0.9992687,0.41272733,-0.91005385,-0.03818507,-0.9106832,-0.41310012,0.002079271,0.3112462158203125,-0.0718260498046875,11.183315954589844,1.4149878,0.07599381,45.741615,0.015304565
-0.08247013793774732,0.009992343045769061,0.7916600317061303,-0.075015835,0.015192357,-0.002538055,0.017252617,-0.034367878,0.99926054,0.401665,-0.9149812,-0.03840411,-0.91562414,-0.40203056,0.0019814412,0.13407529296874998,0.028730419921875,11.286266625976562,1.4149878,0.07599381,45.914,0.015274048
-0.07620826962906538,0.004663093421358896,0.8080474743011915,-0.075015835,0.015192357,-0.002538055,0.016821045,-0.034581155,0.99926054,0.3901797,-0.91993743,-0.038404107,-0.92058504,-0.39053723,0.0019814412,0.229843359375,0.06464344482421874,11.214440576171874,1.418509,0.07599381,46.085804,0.015319824
-0.0863338439154447,0.01438897398590745,0.8265666167460168,-0.075015835,0.015192357,-0.002538055,0.016375529,-0.034794338,0.99926054,0.3783327,-0.92487276,-0.03840411,-0.92552483,-0.37868184,0.0019814412,0.3112462158203125,0.1388636962890625,11.243170996093749,1.423282,0.07599381,46.25822,0.015335083
-0.07927258816310122,0.016653905076281773,0.8565436458833241,-0.075015835,0.015192357,-0.002538055,0.015893066,-0.03527814,0.99925137,0.36556163,-0.9299845,-0.038646933,-0.9306514,-0.36590222,0.0018839661,0.2442085693359375,0.09816226806640624,11.188104357910156,1.4271537,0.07599381,46.435596,0.015853882
-0.08766615632154724,0.014122511504686942,0.8899846872764978,-0.075015835,0.015192357,-0.002538055,0.015403771,-0.035689235,0.99924445,0.35270372,-0.93492913,-0.038829193,-0.93560827,-0.35303536,0.001813704,0.1388636962890625,0.0526724365234375,11.180921752929686,1.4271537,0.07599381,46.606544,0.015289307
-0.07900612568188072,0.013989280264076687,0.93301837799361,-0.075015835,0.015192357,-0.002538055,0.014889645,-0.03590677,0.99924445,0.3392407,-0.93989784,-0.03882919,-0.94058174,-0.3395626,0.001813704,0.18914193115234373,0.12449848632812499,11.238382592773437,1.4271537,0.07599381,46.77854,0.015304565
-0.08446860654690114,0.009459418083328047,0.9326186842717791,-0.075015835,0.015192357,-0.002538055,0.014377531,-0.036114875,0.99924445,0.32584068,-0.94462705,-0.038829193,-0.94531536,-0.3261528,0.001813704,0.06464344482421874,-0.258573779296875,11.17852755126953,1.4271537,0.07203645,46.949623,0.015304565
-0.08673353763727547,0.0127901990985844,0.9222266475041793,-0.075015835,0.015192357,-0.002538055,0.013865544,-0.036314517,0.99924445,0.3124541,-0.949139,-0.038829193,-0.94983166,-0.31275648,0.001813704,0.19393033447265623,-0.076614453125,11.092336291503905,1.4271537,0.07203645,47.119385,0.015304565
-0.08033843808798326,0.012257274136143382,0.9198284851731947,-0.075015835,0.015192357,-0.002538055,0.013354054,-0.036505707,0.99924445,0.29909036,-0.9534344,-0.03882919,-0.95413136,-0.299383,0.001813704,0.15083470458984374,0.0430956298828125,11.228805786132812,1.4271537,0.07203645,47.291065,0.015289307
-0.08939816244948055,0.012257274136143382,0.9097029108868154,-0.075015835,0.015192357,-0.002538055,0.012842508,-0.03668879,0.99924445,0.28573498,-0.95752174,-0.038829193,-0.9582226,-0.28601784,0.001813704,0.20829554443359374,-0.07422025146484375,11.204863769531249,1.4303479,0.07203645,47.462894,0.015335083
-0.08899846872764978,0.0127901990985844,0.9017090364502002,-0.075015835,0.015192357,-0.002538055,0.012327136,-0.037105147,0.9992356,0.27233326,-0.96140987,-0.03906019,-0.96212405,-0.27260667,0.0017464575,0.11731588134765625,-0.0718260498046875,11.212046374511718,1.4303479,0.07203645,47.634663,0.015319824
-0.08113782553164478,0.00479632466196915,0.94873966438562,-0.075015835,0.015192357,-0.002538055,0.011777947,-0.037482813,0.9992281,0.25814688,-0.96530795,-0.039253183,-0.9660338,-0.25841,0.0016932671,0.143652099609375,0.1388636962890625,11.121066711425781,1.4303479,0.07203645,47.805374,0.015350342
-0.08806585004337801,0.012257274136143382,0.9737871376203477,-0.075015835,0.015192357,-0.002538055,0.011214661,-0.037655182,0.9992281,0.24364547,-0.9690697,-0.039253183,-0.9697995,-0.24389769,0.0016932673,0.18914193115234373,0.062249243164062495,11.29344923095703,1.4303479,0.07203645,47.978043,0.015289307
-0.08406891282507037,0.020384379813368887,0.9548683014536916,-0.075015835,0.015192357,-0.002538055,0.010669751,-0.037971377,0.9992221,0.22965613,-0.97247374,-0.039407182,-0.9732134,-0.22989802,0.0016556869,0.07422025146484375,-0.2346317626953125,11.159373937988281,1.4303479,0.06845268,48.14849,0.015274048
-0.0846018377875114,0.010924961730040842,0.8898514560358876,-0.075015835,0.015192357,-0.002538055,0.010156242,-0.038301732,0.9992148,0.2165416,-0.97547024,-0.039592523,-0.9762206,-0.21677376,0.0016131874,0.1197100830078125,-0.105344873046875,11.243170996093749,1.4303479,0.06845268,48.321247,0.015365601
-0.08673353763727547,0.014522205226517705,0.8253675355805246,-0.075015835,0.015192357,-0.002538055,0.009675972,-0.038590707,0.99920845,0.20433965,-0.9780925,-0.039753918,-0.9788523,-0.20456265,0.0015783783,0.201112939453125,-0.201112939453125,11.200075366210937,1.4334289,0.06537166,48.492832,0.015319824
-0.07833996947882944,0.009059724361497283,0.797788668774202,-0.075015835,0.015192357,-0.002538055,0.009198736,-0.038879894,0.9992018,0.19227412,-0.98052883,-0.03992339,-0.9812982,-0.19248797,0.0015440232,0.14604630126953125,0.13646949462890623,11.235988391113281,1.4334289,0.06537166,48.664623,0.015289307
-0.0866003063966652,0.01572128639200999,0.8312297101673757,-0.075015835,0.015192357,-0.002538055,0.008699987,-0.03920377,0.9991936,0.17973302,-0.9828966,-0.040129278,-0.983677,-0.17993727,0.0015049707,0.06703764648437499,0.16998831787109375,11.250353601074218,1.4334289,0.06537166,48.83663,0.015289307
-0.08793261880276775,0.01185758041431262,0.8031179183986121,-0.075015835,0.015192357,-0.002538055,0.00822113,-0.03960018,0.99918205,0.16777499,-0.98499644,-0.040418386,-0.9857911,-0.1679701,0.0014538588,-0.00239420166015625,-0.08140285644531249,11.238382592773437,1.4334289,0.06537166,49.0088,0.015319824
-0.08806585004337801,0.01052526800821008,0.7570199091474642,-0.075015835,0.015192357,-0.002538055,0.0077493987,-0.03969519,0.99918205,0.15604398,-0.98692286,-0.040418386,-0.9877198,-0.15622962,0.0014538588,0.13407529296874998,-0.15562310791015624,11.235988391113281,1.4334289,0.06537166,49.18642,0.015808105
-0.08220367545652682,0.011990811654922875,0.735969373131044,-0.075015835,0.015192357,-0.002538055,0.007295104,-0.039781183,0.99918205,0.14475146,-0.9886422,-0.040418386,-0.9894412,-0.14492798,0.0014538588,0.24899697265624998,0.07900865478515624,11.123460913085937,1.4372358,0.06537166,49.35649,0.015289307
-0.08353598786262936,0.018385911204215073,0.782067382382192,-0.075015835,0.015192357,-0.002538055,0.006808429,-0.03986736,0.99918205,0.13265935,-0.99033725,-0.040418386,-0.9911383,-0.13282606,0.0014538587,0.09816226806640624,0.0143652099609375,11.207257971191405,1.4372358,0.06537166,49.528015,0.015304565
-0.08260336917835759,0.012390505376753637,0.818306279828181,-0.075015835,0.015192357,-0.002538055,0.0063042818,-0.039950185,0.99918205,0.120138824,-0.991934,-0.040418386,-0.9927371,-0.12029542,0.0014538588,0.17238251953125,0.11013327636718749,11.240776794433593,1.4372358,0.06537166,49.70005,0.015304565
-0.0834027566220191,0.007860643196004996,0.8448192967096216,-0.075015835,0.015192357,-0.002538055,0.0057838946,-0.040028837,0.99918205,0.10722107,-0.9934133,-0.040418386,-0.9942184,-0.1073672,0.0014538588,0.00718260498046875,0.028730419921875,11.252747802734374,1.4372358,0.06537166,49.872097,0.015289307
-0.08553445647178318,0.01505513018895872,0.86493721404177,-0.075015835,0.015192357,-0.002538055,0.0052495827,-0.040102407,0.99918205,0.09396404,-0.99475485,-0.040418386,-0.9955618,-0.094099425,0.0014538588,0.239420166015625,0.1292868896484375,11.154585534667968,1.4408927,0.06537166,50.042473,0.015274048
-0.08446860654690114,0.007061255752343471,0.8600076581391907,-0.075015835,0.015192357,-0.002538055,0.004731259,-0.04016686,0.99918205,0.08110985,-0.9958854,-0.040418386,-0.99669397,-0.081234805,0.0014538588,0.16280571289062498,-0.033518823242187495,11.21683477783203,1.4408927,0.06537166,50.2138,0.015274048
-0.07740735079455767,0.016520673835671518,0.8247013793774733,-0.075015835,0.015192357,-0.002538055,0.004218061,-0.04022399,0.99918205,0.068388715,-0.99683964,-0.040418383,-0.99764985,-0.06850334,0.0014538588,0.1580173095703125,0.14125789794921875,11.233594189453123,1.4408927,0.06537166,50.385895,0.015319824
-0.09219601850229589,0.014122511504686942,0.8253675355805246,-0.075015835,0.015192357,-0.002538055,0.0037144609,-0.040273618,0.99918205,0.055911213,-0.9976173,-0.040418383,-0.9984289,-0.056015696,0.0014538588,0.11731588134765625,-0.10295067138671875,11.092336291503905,1.4408927,0.06537166,50.555656,0.015304565
-0.08766615632154724,0.0063950995492922,0.752756509447936,-0.075015835,0.015192357,-0.002538055,0.003262769,-0.040312726,0.99918205,0.044724625,-0.9981814,-0.040418383,-0.99899405,-0.044820003,0.0014538588,0.1197100830078125,-0.28012159423828126,11.092336291503905,1.4408927,0.061088797,50.72525,0.015289307
-0.08193721297530632,0.012656967857974145,0.6513675353435325,-0.075015835,0.015192357,-0.002538055,0.0028726407,-0.040502716,0.99917555,0.03508556,-0.9985602,-0.040578626,-0.99938023,-0.03517329,0.0014474391,0.062249243164062495,-0.2059013427734375,11.29344923095703,1.4408927,0.05794699,50.897575,0.015258789
-0.08753292508093698,0.014921898948348467,0.6264532933494151,-0.075015835,0.015192357,-0.002538055,0.0024703569,-0.04052924,0.99917555,0.025169354,-0.99885935,-0.040578626,-0.9996801,-0.025248935,0.001447439,0.105344873046875,0.1484405029296875,11.3389390625,1.4408927,0.05794699,51.070766,0.015274048
-0.07540888218540386,0.0031975497746461,0.7041271066251932,-0.075015835,0.015192357,-0.002538055,0.002021394,-0.04055411,0.99917555,0.014106673,-0.99907684,-0.040578626,-0.9998985,-0.014177162,0.0014474391,0.17956512451171874,0.39743747558593745,11.075576879882812,1.4408927,0.06404173,51.240612,0.015335083
-0.08300306290018834,0.018652373685435583,0.752223584485495,-0.075015835,0.015192357,-0.002538055,0.0015497049,-0.040733967,0.99916905,0.0025114957,-0.9991668,-0.040737752,-0.9999957,-0.002572637,0.0014461052,0.13407529296874998,0.10773907470703124,11.245565197753905,1.4408927,0.06404173,51.413063,0.015335083
-0.08593415019361393,0.011058192970651094,0.7628820837343153,-0.075015835,0.015192357,-0.002538055,0.0010641003,-0.040749542,0.99916905,-0.009397416,-0.99912566,-0.04073775,-0.99995524,0.00934616,0.0014461051,0.11731588134765625,0.13168109130859373,11.214440576171874,1.4408927,0.06404173,51.584522,0.015289307
-0.08233690669713707,0.01212404289553313,0.8288315478363911,-0.075015835,0.015192357,-0.002538055,0.0005379456,-0.041015953,0.99915856,-0.022254638,-0.99891156,-0.040993817,-0.9997522,0.022213759,0.0014501498,0.055066638183593745,0.27293898925781246,11.034875451660156,1.4408927,0.06821061,51.75307,0.015274048
-0.0863338439154447,0.018385911204215073,0.8434869843035191,-0.075015835,0.015192357,-0.002538055,1.2975594e-05,-0.041019477,0.99915856,-0.035036977,-0.99854493,-0.040993817,-0.9993861,0.03500686,0.0014501498,0.143652099609375,-0.1197100830078125,11.310208642578125,1.4408927,0.06821061,51.925823,0.015274048
-0.0846018377875114,0.020517611053979142,0.8149754988129247,-0.075015835,0.015192357,-0.002538055,-0.00049526745,-0.04117296,0.9991521,-0.04738294,-0.9980289,-0.041150145,-0.99887675,0.04736304,0.0014565992,0.08858546142578125,-0.1005564697265625,11.247959399414063,1.4408927,0.06821061,52.097626,0.015274048
-0.07860643196004995,0.010258805526989571,0.7804686074948689,-0.075015835,0.015192357,-0.002538055,-0.000995482,-0.04134284,0.99914473,-0.059479162,-0.9973737,-0.041328803,-0.998229,0.05946932,0.0014661641,0.19393033447265623,-0.031124621582031248,11.077971081542968,1.4408927,0.06821061,52.26886,0.015457153
-0.09152986229924462,0.014921898948348467,0.8055160807295967,-0.075015835,0.015192357,-0.002538055,-0.0015140774,-0.0415575,0.9991352,-0.071952395,-0.99654186,-0.041558653,-0.9974069,0.071952984,0.0014813142,0.086191259765625,-0.031124621582031248,11.267113012695312,1.4408927,0.06821061,52.443016,0.015457153
-0.0909969373368036,0.022382848422522698,0.7772710577202228,-0.075015835,0.015192357,-0.002538055,-0.002013879,-0.04153628,0.9991352,-0.083934985,-0.9956043,-0.041558657,-0.9964692,0.08394597,0.0014813142,0.1771709228515625,-0.0909796630859375,11.303026037597656,1.4408927,0.06821061,52.617558,0.0154418945
-0.09006431865253181,0.01851914244482533,0.7828667698258536,-0.075015835,0.015192357,-0.002538055,-0.002522015,-0.041508526,0.9991352,-0.09611209,-0.9945026,-0.041558657,-0.99536735,0.09613365,0.0014813142,0.16759411621093748,0.09576806640624999,11.212046374511718,1.4408927,0.06821061,52.79069,0.0154418945
-0.07754058203516792,0.021983154700691936,0.7916600317061303,-0.075015835,0.015192357,-0.002538055,-0.0030294084,-0.04147458,0.9991352,-0.108266056,-0.99325293,-0.041558657,-0.9941174,0.10829819,0.0014813142,0.03591302490234375,-0.0143652099609375,11.374852087402344,1.4408927,0.06821061,52.966686,0.015472412
-0.07953905064432175,0.006794793271122962,0.7663460959901819,-0.075015835,0.015192357,-0.002538055,-0.003520346,-0.041435797,0.9991352,-0.12002076,-0.99190116,-0.041558657,-0.9927652,0.120063126,0.0014813142,0.20350714111328125,0.05746083984375,11.106701501464842,1.4440446,0.06821061,53.138702,0.015487671
-0.0814042880128653,0.01692036755750228,0.7515574282824438,-0.075015835,0.015192357,-0.002538055,-0.0039978353,-0.04155119,0.9991286,-0.13142677,-0.99044776,-0.041716047,-0.99131787,0.13147888,0.0015012855,0.06703764648437499,-0.08858546142578125,11.274295617675781,1.4440446,0.06821061,53.311077,0.015289307
-0.08273660041896783,0.011457886692481857,0.7458284849362028,-0.075015835,0.015192357,-0.002538055,-0.0044745384,-0.041667417,0.9991217,-0.14276494,-0.98887026,-0.041879248,-0.9897466,0.1428268,0.0015239022,0.1867477294921875,0.09576806640624999,11.310208642578125,1.4440446,0.06821061,53.484,0.015289307
-0.0863338439154447,0.026379785640830326,0.7319724359127363,-0.075015835,0.015192357,-0.002538055,-0.004934338,-0.04161547,0.9991217,-0.15367489,-0.98723364,-0.041879248,-0.98810923,0.15374641,0.0015239022,0.16041151123046873,-0.201112939453125,11.437101330566406,1.4440446,0.06513266,53.659042,0.015304565
-0.08153751925347555,0.014921898948348467,0.6722848401193425,-0.075015835,0.015192357,-0.002538055,-0.005353629,-0.04156361,0.9991217,-0.16361977,-0.9856342,-0.041879248,-0.986509,0.16370012,0.0015239022,0.076614453125,-0.22505495605468748,10.97502041015625,1.4440446,0.061695162,53.826675,0.015274048
-0.08207044421591657,0.0039969372183076245,0.638977029966779,-0.075015835,0.015192357,-0.002538055,-0.005757828,-0.041509546,0.9991217,-0.17320314,-0.9839954,-0.041879248,-0.98486936,0.173292,0.0015239022,0.023942016601562498,0.00239420166015625,11.097124694824219,1.4440446,0.061695162,53.99634,0.015289307
-0.09206278726168562,0.01851914244482533,0.6249877497027023,-0.075015835,0.015192357,-0.002538055,-0.0061506415,-0.04145316,0.9991217,-0.18251325,-0.9823111,-0.041879248,-0.9831842,0.18261038,0.0015239022,-0.0143652099609375,-0.12210428466796874,11.494562170410155,1.4440446,0.061695162,54.17226,0.015304565
-0.08553445647178318,0.007727411955394742,0.5714287909773801,-0.075015835,0.015192357,-0.002538055,-0.006499625,-0.04163171,0.99911207,-0.19075868,-0.9807335,-0.042106852,-0.9816155,0.19086282,0.0015672046,0.1580173095703125,-0.04548983154296875,11.092336291503905,1.4440446,0.061695162,54.341686,0.015274048
-0.0750091884635731,0.017986217482384312,0.48149770356545857,-0.075015835,0.015192357,-0.002538055,-0.006798081,-0.04158402,0.99911207,-0.19778855,-0.97933996,-0.042106852,-0.9802212,0.19789904,0.0015672047,0.143652099609375,-0.229843359375,11.291055029296874,1.4440446,0.05806528,54.520004,0.015792847
-0.07847320071943971,0.007860643196004996,0.3537289438202248,-0.075015835,0.015192357,-0.002538055,-0.0070027583,-0.04155004,0.99911207,-0.20260842,-0.97835416,-0.042106852,-0.9792349,0.20272325,0.0015672047,0.011971008300781249,-0.38307226562499996,11.075576879882812,1.4440446,0.052190837,54.68985,0.015335083
-0.08247013793774732,0.01185758041431262,0.19118683027571473,-0.075015835,0.015192357,-0.002538055,-0.007096109,-0.0415342,0.99911207,-0.2048064,-0.9778964,-0.042106852,-0.9787769,0.20492321,0.0015672047,0.033518823242187495,-0.49799394531249996,11.180921752929686,1.4440446,0.044569254,54.86097,0.015304565
-0.08047166932859352,0.011058192970651094,-0.01212404289553313,-0.075015835,0.015192357,-0.002538055,-0.007096109,-0.0415342,0.99911207,-0.2048064,-0.9778964,-0.042106852,-0.9787769,0.20492321,0.0015672047,0.07422025146484375,0.016759411621093748,11.276689819335937,1.4440446,0.044569254,55.03321,0.015274048
-0.07820673823821919,0.0127901990985844,0.0003996937218307625,-0.075015835,0.015192357,-0.002538055,-0.007096109,-0.0415342,0.99911207,-0.2048064,-0.9778964,-0.042106852,-0.9787769,0.20492321,0.0015672047,0.15562310791015624,0.047884033203124995,11.245565197753905,1.4440446,0.044569254,55.204975,0.015274048
-0.08033843808798326,0.010924961730040842,-0.0014655436467127959,-0.075015835,0.015192357,-0.002538055,-0.007096109,-0.0415342,0.99911207,-0.2048064,-0.9778964,-0.042106852,-0.9787769,0.20492321,0.0015672047,0.11252747802734374,0.023942016601562498,11.202469567871093,1.4440446,0.044569254,55.376083,0.015274048
-0.07794027575699868,0.00866003063966652,-0.0013323124061025418,-0.075015835,0.015192357,-0.002538055,-0.007096109,-0.0415342,0.99911207,-0.2048064,-0.9778964,-0.042106852,-0.9787769,0.20492321,0.0015672047,0.1771709228515625,0.06703764648437499,11.279084020996093,1.4440446,0.044569254,55.548706,0.015304565
-0.07900612568188072,0.008793261880276773,-0.0026646248122050836,-0.075015835,0.015192357,-0.002538055,-0.007096109,-0.0415342,0.99911207,-0.2048064,-0.9778964,-0.042106852,-0.9787769,0.20492321,0.0015672047,0.14125789794921875,0.055066638183593745,11.252747802734374,1.4440446,0.044569254,55.720924,0.015304565
-0.08220367545652682,0.009326186842717792,-0.0039969372183076245,-0.075015835,0.015192357,-0.002538055,-0.007096109,-0.0415342,0.99911207,-0.2048064,-0.9778964,-0.042106852,-0.9787769,0.20492321,0.0015672047,0.13407529296874998,0.023942016601562498,11.219228979492186,1.4440446,0.044569254,55.89246,0.015289307
-0.0770076570727269,0.011724349173702367,-0.0029310872934255917,-0.075015835,0.015192357,-0.002538055,-0.007096109,-0.0415342,0.99911207,-0.2048064,-0.9778964,-0.042106852,-0.9787769,0.20492321,0.0015672047,0.18435352783203124,-0.00239420166015625,11.298237634277344,1.4440446,0.044569254,56.065376,0.015304565
-0.07980551312554225,0.012923430339194655,-0.0003996937218307625,-0.075015835,0.015192357,-0.002538055,-0.007096109,-0.0415342,0.99911207,-0.2048064,-0.9778964,-0.042106852,-0.9787769,0.20492321,0.0015672047,0.15562310791015624,0.0047884033203125,11.25514200439453,1.4440446,0.044569254,56.23729,0.015274048
-0.07780704451638844,0.011591117933092112,-0.0006661562030512709,-0.075015835,0.015192357,-0.002538055,-0.007096109,-0.0415342,0.99911207,-0.2048064,-0.9778964,-0.042106852,-0.9787769,0.20492321,0.0015672047,0.1580173095703125,0.023942016601562498,11.202469567871093,1.4440446,0.044569254,56.40891,0.015319824
-0.07860643196004995,0.00985911180515881,-0.002264931090374321,-0.075015835,0.015192357,-0.002538055,-0.007096109,-0.0415342,0.99911207,-0.2048064,-0.9778964,-0.042106852,-0.9787769,0.20492321,0.0015672047,0.16998831787109375,0.00239420166015625,11.197681164550781,1.4440446,0.044569254,56.580112,0.015289307
-0.08100459429103453,0.010924961730040842,-0.002531393571594829,-0.075015835,0.015192357,-0.002538055,-0.007096109,-0.0415342,0.99911207,-0.2048064,-0.9778964,-0.042106852,-0.9787769,0.20492321,0.0015672047,0.05027823486328125,0.09576806640624999,11.238382592773437,1.4440446,0.044569254,56.751766,0.015274048
-0.08300306290018834,0.011457886692481857,-0.0014655436467127959,-0.075015835,0.015192357,-0.002538055,-0.007096109,-0.0415342,0.99911207,-0.2048064,-0.9778964,-0.042106852,-0.9787769,0.20492321,0.0015672047,0.11731588134765625,-0.0047884033203125,11.228805786132812,1.4440446,0.044569254,56.923275,0.015274048
-0.08273660041896783,0.008926493120887028,-0.0013323124061025418,-0.075015835,0.015192357,-0.002538055,-0.007096109,-0.0415342,0.99911207,-0.2048064,-0.9778964,-0.042106852,-0.9787769,0.20492321,0.0015672047,0.1771709228515625,0.031124621582031248,11.305420239257812,1.4440446,0.044569254,57.0963,0.015304565
-0.08260336917835759,0.010125574286379316,-0.0013323124061025418,-0.075015835,0.015192357,-0.002538055,-0.007096109,-0.0415342,0.99911207,-0.2048064,-0.9778964,-0.042106852,-0.9787769,0.20492321,0.0015672047,0.13407529296874998,0.02633621826171875,11.207257971191405,1.4440446,0.044569254,57.273636,0.015823364
-0.07940581940371148,0.01572128639200999,-0.0010658499248820332,-0.075015835,0.015192357,-0.002538055,-0.007096109,-0.0415342,0.99911207,-0.2048064,-0.9778964,-0.042106852,-0.9787769,0.20492321,0.0015672047,0.16280571289062498,0.08379705810546874,11.152191333007812,1.4440446,0.044569254,57.444317,0.015304565
-0.08047166932859352,0.008127105677225504,-0.001732006127933304,-0.075015835,0.015192357,-0.002538055,-0.007096109,-0.0415342,0.99911207,-0.2048064,-0.9778964,-0.042106852,-0.9787769,0.20492321,0.0015672047,0.13407529296874998,0.02633621826171875,11.219228979492186,1.4440446,0.044569254,57.61568,0.015274048
-0.08047166932859352,0.01212404289553313,-0.002797856052815337,-0.075015835,0.015192357,-0.002538055,-0.007096109,-0.0415342,0.99911207,-0.2048064,-0.9778964,-0.042106852,-0.9787769,0.20492321,0.0015672047,0.11013327636718749,0.02633621826171875,11.25514200439453,1.4440446,0.044569254,57.787594,0.015274048
-0.08047166932859352,0.01052526800821008,0.0006661562030512709,-0.075015835,0.015192357,-0.002538055,-0.007096109,-0.0415342,0.99911207,-0.2048064,-0.9778964,-0.042106852,-0.9787769,0.20492321,0.0015672047,0.13168109130859373,-0.009576806640625,11.279084020996093,1.4440446,0.044569254,57.96039,0.015319824
-0.07780704451638844,0.009725880564548555,-0.0010658499248820332,-0.075015835,0.015192357,-0.002538055,-0.007096109,-0.0415342,0.99911207,-0.2048064,-0.9778964,-0.042106852,-0.9787769,0.20492321,0.0015672047,0.1388636962890625,0.05027823486328125,11.243170996093749,1.4440446,0.044569254,58.13212,0.015274048
-0.07794027575699868,0.011457886692481857,0.0003996937218307625,-0.075015835,0.015192357,-0.002538055,-0.007096109,-0.0415342,0.99911207,-0.2048064,-0.9778964,-0.042106852,-0.9787769,0.20492321,0.0015672047,0.1149216796875,0.06943184814453125,11.21683477783203,1.4440446,0.044569254,58.303787,0.015304565
-0.07900612568188072,0.01052526800821008,-0.00159877488732305,-0.075015835,0.015192357,-0.002538055,-0.007096109,-0.0415342,0.99911207,-0.2048064,-0.9778964,-0.042106852,-0.9787769,0.20492321,0.0015672047,0.1292868896484375,0.0430956298828125,11.312602844238281,1.4440446,0.044569254,58.47692,0.015304565
-0.08100459429103453,0.013056661579804908,-0.0026646248122050836,-0.075015835,0.015192357,-0.002538055,-0.007096109,-0.0415342,0.99911207,-0.2048064,-0.9778964,-0.042106852,-0.9787769,0.20492321,0.0015672047,0.12689268798828124,0.040701428222656245,11.252747802734374,1.4440446,0.044569254,58.648968,0.015289307
-0.07873966320066021,0.010658499248820334,0.0013323124061025418,-0.075015835,0.015192357,-0.002538055,-0.007096109,-0.0415342,0.99911207,-0.2048064,-0.9778964,-0.042106852,-0.9787769,0.20492321,0.0015672047,0.16519991455078123,0.04548983154296875,11.154585534667968,1.4440446,0.044569254,58.819344,0.015274048
-0.08073813180981403,0.008793261880276773,-0.0019984686091538122,-0.075015835,0.015192357,-0.002538055,-0.007096109,-0.0415342,0.99911207,-0.2048064,-0.9778964,-0.042106852,-0.9787769,0.20492321,0.0015672047,0.20829554443359374,-0.023942016601562498,11.233594189453123,1.447226,0.044569254,58.990925,0.015274048
-0.08193721297530632,0.00985911180515881,-0.0006661562030512709,-0.075015835,0.015192357,-0.002538055,-0.007096109,-0.0415342,0.99911207,-0.2048064,-0.9778964,-0.042106852,-0.9787769,0.20492321,0.0015672047,0.105344873046875,0.04548983154296875,11.154585534667968,1.447226,0.044569254,59.1613,0.015274048
-0.07980551312554225,0.009725880564548555,-0.000799387443661525,-0.075015835,0.015192357,-0.002538055,-0.007096109,-0.0415342,0.99911207,-0.2048064,-0.9778964,-0.042106852,-0.9787769,0.20492321,0.0015672047,0.1580173095703125,0.10295067138671875,11.303026037597656,1.447226,0.044569254,59.33446,0.015319824
-0.07873966320066021,0.011990811654922875,-0.002531393571594829,-0.075015835,0.015192357,-0.002538055,-0.007096109,-0.0415342,0.99911207,-0.2048064,-0.9778964,-0.042106852,-0.9787769,0.20492321,0.0015672047,0.143652099609375,0.009576806640625,11.283872424316405,1.447226,0.044569254,59.506985,0.015289307
-0.07767381327577817,0.009059724361497283,0.00013323124061025415,-0.075015835,0.015192357,-0.002538055,-0.007096109,-0.0415342,0.99911207,-0.2048064,-0.9778964,-0.042106852,-0.9787769,0.20492321,0.0015672047,0.12689268798828124,0.06464344482421874,11.247959399414063,1.447226,0.044569254,59.67913,0.015304565
-0.07927258816310122,0.012656967857974145,-0.002398162330984575,-0.075015835,0.015192357,-0.002538055,-0.007096109,-0.0415342,0.99911207,-0.2048064,-0.9778964,-0.042106852,-0.9787769,0.20492321,0.0015672047,0.17956512451171874,0.05985504150390625,11.125855114746093,1.447226,0.044569254,59.849068,0.015274048
-0.07953905064432175,0.009992343045769061,0.0002664624812205083,-0.075015835,0.015192357,-0.002538055,-0.007096109,-0.0415342,0.99911207,-0.2048064,-0.9778964,-0.042106852,-0.9787769,0.20492321,0.0015672047,0.16519991455078123,0.11252747802734374,11.231199987792968,1.447226,0.044569254,60.02661,0.015808105
-0.08073813180981403,0.008260336917835759,-0.000799387443661525,-0.075015835,0.015192357,-0.002538055,-0.007096109,-0.0415342,0.99911207,-0.2048064,-0.9778964,-0.042106852,-0.9787769,0.20492321,0.0015672047,0.12210428466796874,-0.0143652099609375,11.262324609375,1.447226,0.044569254,60.199146,0.015319824
-0.07860643196004995,0.011324655451871604,-0.00159877488732305,-0.075015835,0.015192357,-0.002538055,-0.007096109,-0.0415342,0.99911207,-0.2048064,-0.9778964,-0.042106852,-0.9787769,0.20492321,0.0015672047,0.1292868896484375,0.05746083984375,11.219228979492186,1.447226,0.044569254,60.37051,0.015274048
-0.07953905064432175,0.009992343045769061,-0.0010658499248820332,-0.075015835,0.015192357,-0.002538055,-0.007096109,-0.0415342,0.99911207,-0.2048064,-0.9778964,-0.042106852,-0.9787769,0.20492321,0.0015672047,0.15322890625,0.09576806640624999,11.228805786132812,1.447226,0.044569254,60.54202,0.015274048
-0.08060490056920376,0.010392036767599824,-0.0002664624812205083,-0.075015835,0.015192357,-0.002538055,-0.007096109,-0.0415342,0.99911207,-0.2048064,-0.9778964,-0.042106852,-0.9787769,0.20492321,0.0015672047,0.13168109130859373,0.05746083984375,11.307814440917968,1.447226,0.044569254,60.71491,0.015289307
-0.07833996947882944,0.010392036767599824,0.0005329249624410166,-0.075015835,0.015192357,-0.002538055,-0.007096109,-0.0415342,0.99911207,-0.2048064,-0.9778964,-0.042106852,-0.9787769,0.20492321,0.0015672047,0.13407529296874998,0.009576806640625,11.2240173828125,1.447226,0.044569254,60.88669,0.015304565
-0.08047166932859352,0.011191424211261349,-0.0009326186842717792,-0.075015835,0.015192357,-0.002538055,-0.007096109,-0.0415342,0.99911207,-0.2048064,-0.9778964,-0.042106852,-0.9787769,0.20492321,0.0015672047,0.16041151123046873,0.01915361328125,11.238382592773437,1.447226,0.044569254,61.060917,0.01550293
-0.07967228188493199,0.012523736617363892,-0.0030643185340358454,-0.075015835,0.015192357,-0.002538055,-0.007096109,-0.0415342,0.99911207,-0.2048064,-0.9778964,-0.042106852,-0.9787769,0.20492321,0.0015672047,0.08140285644531249,0.04548983154296875,11.195286962890624,1.447226,0.044569254,61.233795,0.0154418945
-0.07993874436615249,0.008926493120887028,-0.00159877488732305,-0.075015835,0.015192357,-0.002538055,-0.007096109,-0.0415342,0.99911207,-0.2048064,-0.9778964,-0.042106852,-0.9787769,0.20492321,0.0015672047,0.0909796630859375,0.03591302490234375,11.312602844238281,1.447226,0.044569254,61.40883,0.015472412
-0.07900612568188072,0.01212404289553313,-0.0009326186842717792,-0.075015835,0.015192357,-0.002538055,-0.007096109,-0.0415342,0.99911207,-0.2048064,-0.9778964,-0.042106852,-0.9787769,0.20492321,0.0015672047,0.19632453613281248,0.023942016601562498,11.259930407714844,1.447226,0.044569254,61.58253,0.015426636
-0.08033843808798326,0.010125574286379316,-0.0011990811654922875,-0.075015835,0.015192357,-0.002538055,-0.007096109,-0.0415342,0.99911207,-0.2048064,-0.9778964,-0.042106852,-0.9787769,0.20492321,0.0015672047,0.13646949462890623,0.0909796630859375,11.250353601074218,1.447226,0.044569254,61.755913,0.015411377
-0.07887289444127048,0.0075941807147844875,-0.0030643185340358454,-0.075015835,0.015192357,-0.002538055,-0.007096109,-0.0415342,0.99911207,-0.2048064,-0.9778964,-0.042106852,-0.9787769,0.20492321,0.0015672047,0.19632453613281248,0.076614453125,11.257536206054686,1.447226,0.044569254,61.928547,0.015335083
-0.080205206847373,0.010658499248820334,-0.0033307810152563544,-0.075015835,0.015192357,-0.002538055,-0.007096109,-0.0415342,0.99911207,-0.2048064,-0.9778964,-0.042106852,-0.9787769,0.20492321,0.0015672047,0.18914193115234373,0.062249243164062495,11.3006318359375,1.447226,0.044569254,62.101154,0.015274048
-0.07900612568188072,0.007061255752343471,-0.0030643185340358454,-0.075015835,0.015192357,-0.002538055,-0.007096109,-0.0415342,0.99911207,-0.2048064,-0.9778964,-0.042106852,-0.9787769,0.20492321,0.0015672047,0.11252747802734374,0.033518823242187495,11.257536206054686,1.447226,0.044569254,62.2731,0.015274048
-0.08207044421591657,0.00866003063966652,0.00013323124061025415,-0.075015835,0.015192357,-0.002538055,-0.007096109,-0.0415342,0.99911207,-0.2048064,-0.9778964,-0.042106852,-0.9787769,0.20492321,0.0015672047,0.15562310791015624,0.00718260498046875,11.188104357910156,1.447226,0.044569254,62.443817,0.015258789
-0.080205206847373,0.009459418083328047,-0.0002664624812205083,-0.075015835,0.015192357,-0.002538055,-0.007096109,-0.0415342,0.99911207,-0.2048064,-0.9778964,-0.042106852,-0.9787769,0.20492321,0.0015672047,0.15083470458984374,0.028730419921875,11.209652172851563,1.447226,0.044569254,62.614864,0.015258789
-0.08087136305042428,0.009725880564548555,-0.0035972434964768626,-0.075015835,0.015192357,-0.002538055,-0.007096109,-0.0415342,0.99911207,-0.2048064,-0.9778964,-0.042106852,-0.9787769,0.20492321,0.0015672047,0.10773907470703124,0.05985504150390625,11.190498559570312,1.447226,0.044569254,62.789032,0.015563965
-0.07873966320066021,0.01052526800821008,-0.002264931090374321,-0.075015835,0.015192357,-0.002538055,-0.007096109,-0.0415342,0.99911207,-0.2048064,-0.9778964,-0.042106852,-0.9787769,0.20492321,0.0015672047,0.05027823486328125,-0.009576806640625,11.25514200439453,1.447226,0.044569254,62.96266,0.015426636
-0.07927258816310122,0.009725880564548555,-0.002264931090374321,-0.075015835,0.015192357,-0.002538055,-0.007096109,-0.0415342,0.99911207,-0.2048064,-0.9778964,-0.042106852,-0.9787769,0.20492321,0.0015672047,0.15083470458984374,0.028730419921875,11.202469567871093,1.447226,0.044569254,63.13565,0.0154418945
-0.07980551312554225,0.010392036767599824,-0.0003996937218307625,-0.075015835,0.015192357,-0.002538055,-0.007096109,-0.0415342,0.99911207,-0.2048064,-0.9778964,-0.042106852,-0.9787769,0.20492321,0.0015672047,0.13646949462890623,0.07900865478515624,11.274295617675781,1.447226,0.044569254,63.310093,0.015472412
-0.08087136305042428,0.011990811654922875,-0.00159877488732305,-0.075015835,0.015192357,-0.002538055,-0.007096109,-0.0415342,0.99911207,-0.2048064,-0.9778964,-0.042106852,-0.9787769,0.20492321,0.0015672047,0.15083470458984374,0.0526724365234375,11.231199987792968,1.447226,0.044569254,63.483524,0.0154418945
-0.07927258816310122,0.012656967857974145,-0.0029310872934255917,-0.075015835,0.015192357,-0.002538055,-0.007096109,-0.0415342,0.99911207,-0.2048064,-0.9778964,-0.042106852,-0.9787769,0.20492321,0.0015672047,0.16519991455078123,-0.04548983154296875,11.145008728027342,1.447226,0.044569254,63.656303,0.01550293
-0.07847320071943971,0.008793261880276773,0.0021316998497640663,-0.075015835,0.015192357,-0.002538055,-0.007096109,-0.0415342,0.99911207,-0.2048064,-0.9778964,-0.042106852,-0.9787769,0.20492321,0.0015672047,0.16998831787109375,-0.0143652099609375,11.219228979492186,1.447226,0.044569254,63.82801,0.015304565
-0.08247013793774732,0.006661562030512709,0.04250076575467108,-0.075015835,0.015192357,-0.002538055,-0.0071726525,-0.04152105,0.99911207,-0.2066085,-0.97751725,-0.042106852,-0.9783975,0.20672694,0.0015672047,0.21068974609375,0.8858546142578124,11.233594189453123,1.4504538,0.05814039,64.00011,0.015319824
-0.08420214406568063,0.016787136316892024,0.35466156250449654,-0.075015835,0.015192357,-0.002538055,-0.0072700754,-0.041473303,0.9991133,-0.21307455,-0.97612983,-0.04206969,-0.977009,0.21319135,0.001740362,0.296881005859375,1.01514150390625,11.245565197753905,1.4549884,0.07364571,64.171875,0.015274048
-0.07540888218540386,0.016120980113840753,0.5792894341733851,-0.075015835,0.015192357,-0.002538055,-0.0076591684,-0.04140321,0.9991133,-0.22223052,-0.97408617,-0.04206969,-0.97496414,0.22235557,0.001740362,0.076614453125,0.5626373901367188,10.864887133789061,1.4549884,0.082239464,64.33783,0.015274048
-0.07594180714784488,0.007061255752343471,0.6523001540278044,-0.075015835,0.015192357,-0.002538055,-0.008261132,-0.04168505,0.9990968,-0.23183675,-0.97182745,-0.042464253,-0.9727197,0.23197804,0.0016357263,-0.0383072265625,-0.031124621582031248,10.778695874023438,1.4549884,0.082239464,64.50279,0.015304565
-0.08220367545652682,0.015987748873230498,0.5724946409022621,-0.075015835,0.015192357,-0.002538055,-0.008605031,-0.041951403,0.99908274,-0.2398207,-0.9698737,-0.04279047,-0.97077906,0.23996879,0.0017150157,0.031124621582031248,-0.27293898925781246,10.896011755371093,1.4549884,0.078066416,64.66939,0.015289307
-0.0752756509447936,0.006128637068071691,0.4270061261558646,-0.075015835,0.015192357,-0.002538055,-0.008863288,-0.0418976,0.99908274,-0.24579059,-0.96837807,-0.042790473,-0.9692825,0.24594425,0.0017150159,-0.0718260498046875,-0.2920926025390625,11.173739147949219,1.4549884,0.07360498,64.84006,0.015274048
-0.08700000011849597,0.015588055151399738,0.34080551348103016,-0.075015835,0.015192357,-0.002538055,-0.009078765,-0.04208597,0.9990729,-0.25075644,-0.967094,-0.043017525,-0.96800774,0.25091437,0.0017733033,0.16041151123046873,-0.062249243164062495,11.295843432617186,1.4549884,0.07360498,65.01311,0.015319824
-0.08846554376520875,0.01572128639200999,0.3478667692333736,-0.075015835,0.015192357,-0.002538055,-0.009322632,-0.042274617,0.9990627,-0.25634345,-0.96561766,-0.043251444,-0.9665408,0.25650623,0.0018347169,0.16998831787109375,0.33039982910156246,11.291055029296874,1.4549884,0.078651525,65.18557,0.015274048
-0.0863338439154447,0.008793261880276773,0.4535191430373052,-0.075015835,0.015192357,-0.002538055,-0.009648682,-0.042201392,0.9990627,-0.26378962,-0.9636101,-0.043251444,-0.9645321,0.26395956,0.001834717,0.3232172241210937,0.39983167724609375,11.394005700683593,1.4601077,0.08498431,65.366035,0.015838623
-0.08713323135910622,0.011591117933092112,0.573427259586534,-0.075015835,0.015192357,-0.002538055,-0.010032634,-0.042111766,0.9990627,-0.27255484,-0.96116763,-0.043251444,-0.96208805,0.27273318,0.001834717,0.00718260498046875,0.2059013427734375,11.267113012695312,1.4601077,0.0881324,65.5383,0.015289307
-0.09392802463022919,0.018252679963604822,0.6594946410207582,-0.075015835,0.015192357,-0.002538055,-0.010473992,-0.042004168,0.9990627,-0.2826261,-0.9582546,-0.043251444,-0.9591731,0.28281406,0.001834717,0.086191259765625,0.06703764648437499,11.398794104003905,1.4601077,0.0881324,65.71327,0.015350342
-0.09246248098351639,0.018385911204215073,0.7474272598235259,-0.075015835,0.015192357,-0.002538055,-0.01069339,-0.04187843,0.9990657,-0.29400223,-0.9548293,-0.043170962,-0.9557449,0.294189,0.0021019836,0.143652099609375,0.4477157104492187,11.152191333007812,1.4601077,0.09497766,65.88378,0.015289307
-0.09206278726168562,0.020517611053979142,0.8869203687424619,-0.075015835,0.015192357,-0.002538055,-0.011279691,-0.04172433,0.9990657,-0.30736497,-0.95061195,-0.043170962,-0.9515249,0.3075646,0.0021019839,-0.16280571289062498,0.28490999755859375,11.860875024414062,1.4601077,0.09932939,66.06494,0.015274048
