GyroX,GyroY,GyroZ,NoiseX,NoiseY,NoiseZ,ExpGravityX,ExpGravityY,ExpGravityZ,ExpOxX,ExpOxY,ExpOxZ,ExpOyX,ExpOyY,ExpOyZ,AccX,AccY,AccZ,ExpSpeedX,ExpSpeedY,ExpSpeedZ,dT
0.03357427263378405,0.03130934154340973,-0.01732006127933304,0.03280287,0.02243214,-0.0034600156,0.10142155,-0.023278823,0.9945711,0.9948436,0.0023732118,-0.10139378,0.0,-0.99972624,-0.023399483,0.8212111694335937,-0.19393033447265623,8.202534887695313,0.0037090837,0.0,0.037047584,0.0045166016
0.036638591167819895,0.03144257278401998,-0.015188361429568975,0.03280287,0.02243214,-0.0034600156,0.10142155,-0.023278823,0.9945711,0.9948436,0.0023732118,-0.10139378,0.0,-0.99972624,-0.023399483,0.852335791015625,-0.18914193115234373,8.322244970703125,0.019159751,0.0,0.18790859,0.018127441
0.0305099540997482,0.030909647821578966,-0.017719755001163805,0.03280287,0.02243214,-0.0034600156,0.10142155,-0.023278823,0.9945711,0.9948436,0.0023732118,-0.10139378,0.0,-0.99972624,-0.023399483,0.8116343627929687,-0.22026655273437498,8.334215979003906,0.03377353,-0.003965981,0.33796924,0.018005371
0.03530627876171736,0.031176110302799476,-0.011990811654922875,0.03280287,0.02243214,-0.0034600156,0.10142155,-0.023278823,0.9945711,0.9948436,0.0023732118,-0.10139378,0.0,-0.99972624,-0.023399483,0.8068459594726562,-0.24660277099609373,8.269572534179687,0.048350338,-0.008421207,0.4873707,0.018066406
0.03503981628049684,0.03170903526524049,-0.016254211354451008,0.03280287,0.02243214,-0.0034600156,0.10142155,-0.023278823,0.9945711,0.9948436,0.0023732118,-0.10139378,0.0,-0.99972624,-0.023399483,0.8403647827148437,-0.1149216796875,8.212111694335936,0.06348142,-0.008421207,0.6352328,0.018005371
0.032508422708902016,0.029843797896696934,-0.016653905076281773,0.03280287,0.02243214,-0.0034600156,0.10142155,-0.023278823,0.9945711,0.9948436,0.0023732118,-0.10139378,0.0,-0.99972624,-0.023399483,0.8451531860351562,-0.22744915771484372,8.195352282714843,0.0787503,-0.012530396,0.78329337,0.018066406
0.031575804024630234,0.027845329287543123,-0.015454823910789483,0.03280287,0.02243214,-0.0034600156,0.10142155,-0.023278823,0.9945711,0.9948436,0.0023732118,-0.10139378,0.0,-0.99972624,-0.023399483,0.9169792358398436,-0.19153613281249998,8.29351455078125,0.09526085,-0.012530396,0.9326212,0.018005371
0.03077641658096871,0.028911179212425153,-0.011191424211261349,0.03280287,0.02243214,-0.0034600156,0.10142155,-0.023278823,0.9945711,0.9948436,0.0023732118,-0.10139378,0.0,-0.99972624,-0.023399483,0.7948749511718749,-0.19393033447265623,8.224082702636718,0.10962138,-0.012530396,1.0812008,0.018066406
0.03490658503988659,0.030909647821578966,-0.014522205226517705,0.03280287,0.02243214,-0.0034600156,0.10142155,-0.023278823,0.9945711,0.9948436,0.0023732118,-0.10139378,0.0,-0.99972624,-0.023399483,0.8092401611328125,-0.20350714111328125,8.264784130859374,0.12438962,-0.016244302,1.2320291,0.018249512
0.03490658503988659,0.029843797896696934,-0.014788667707738212,0.03280287,0.02243214,-0.0034600156,0.10142155,-0.023278823,0.9945711,0.9948436,0.0023732118,-0.10139378,0.0,-0.99972624,-0.023399483,0.86191259765625,-0.2537853759765625,8.228871105957031,0.13990867,-0.020813802,1.380193,0.018005371
0.03464012255866608,0.02851148549059439,-0.016120980113840753,0.03280287,0.02243214,-0.0034600156,0.10142155,-0.023278823,0.9945711,0.9948436,0.0023732118,-0.10139378,0.0,-0.99972624,-0.023399483,0.8092401611328125,-0.13646949462890623,8.17859287109375,0.15442994,-0.020813802,1.5269524,0.017944336
0.03437366007744557,0.03064318534035846,-0.019318529888486854,0.03280287,0.02243214,-0.0034600156,0.10142155,-0.023278823,0.9945711,0.9948436,0.0023732118,-0.10139378,0.0,-0.99972624,-0.023399483,0.8116343627929687,-0.15083470458984374,8.207323291015625,0.16899419,-0.020813802,1.6742274,0.017944336
0.032375191468291764,0.03064318534035846,-0.012390505376753637,0.03280287,0.02243214,-0.0034600156,0.10142155,-0.023278823,0.9945711,0.9948436,0.0023732118,-0.10139378,0.0,-0.99972624,-0.023399483,0.82360537109375,-0.21068974609375,8.262389929199218,0.18377323,-0.02459449,1.8224905,0.017944336
0.03130934154340973,0.02904441045303541,-0.014788667707738212,0.03280287,0.02243214,-0.0034600156,0.10142155,-0.023278823,0.9945711,0.9948436,0.0023732118,-0.10139378,0.0,-0.99972624,-0.023399483,0.7948749511718749,-0.18914193115234373,8.212111694335936,0.19808525,-0.02459449,1.9703525,0.018005371
0.03290811643073278,0.03011026037791744,-0.015188361429568975,0.03280287,0.02243214,-0.0034600156,0.10142155,-0.023278823,0.9945711,0.9948436,0.0023732118,-0.10139378,0.0,-0.99972624,-0.023399483,0.9026140258789062,-0.2059013427734375,8.300697155761718,0.21433716,-0.02830182,2.1198096,0.018005371
0.031042879062189218,0.03064318534035846,-0.015454823910789483,0.03280287,0.02243214,-0.0034600156,0.10142155,-0.023278823,0.9945711,0.9948436,0.0023732118,-0.10139378,0.0,-0.99972624,-0.023399483,0.8379705810546875,-0.1771709228515625,8.221688500976562,0.22942513,-0.02830182,2.2678442,0.018005371
0.03424042883683532,0.032241960227681506,-0.017719755001163805,0.03280287,0.02243214,-0.0034600156,0.10142155,-0.023278823,0.9945711,0.9948436,0.0023732118,-0.10139378,0.0,-0.99972624,-0.023399483,0.8044517578125,-0.22266075439453123,8.142679846191406,0.24390958,-0.03231091,2.4144561,0.018005371
0.032241960227681506,0.029444104174866172,-0.01185758041431262,0.03280287,0.02243214,-0.0034600156,0.10142155,-0.023278823,0.9945711,0.9948436,0.0023732118,-0.10139378,0.0,-0.99972624,-0.023399483,0.842758984375,-0.12210428466796874,8.228871105957031,0.25908378,-0.03231091,2.56262,0.018005371
0.031842266505850744,0.02997702913730719,-0.017453292519943295,0.03280287,0.02243214,-0.0034600156,0.10142155,-0.023278823,0.9945711,0.9948436,0.0023732118,-0.10139378,0.0,-0.99972624,-0.023399483,0.8164227661132812,-0.13407529296874998,8.25520732421875,0.27378377,-0.03231091,2.711258,0.018005371
0.033307810152563545,0.029177641693645662,-0.014921898948348467,0.03280287,0.02243214,-0.0034600156,0.10142155,-0.023278823,0.9945711,0.9948436,0.0023732118,-0.10139378,0.0,-0.99972624,-0.023399483,0.8307879760742187,-0.20350714111328125,8.28633194580078,0.2886917,-0.035962712,2.8599505,0.017944336
0.03384073511500456,0.027845329287543123,-0.014655436467127957,0.03280287,0.02243214,-0.0034600156,0.10142155,-0.023278823,0.9945711,0.9948436,0.0023732118,-0.10139378,0.0,-0.99972624,-0.023399483,0.8547299926757812,-0.17477672119140625,8.267178332519531,0.30408144,-0.035962712,3.008804,0.018005371
0.03424042883683532,0.027578866806322613,-0.016120980113840753,0.03280287,0.02243214,-0.0034600156,0.10142155,-0.023278823,0.9945711,0.9948436,0.0023732118,-0.10139378,0.0,-0.99972624,-0.023399483,0.8738836059570312,-0.19153613281249998,8.183381274414062,0.31981605,-0.035962712,3.156149,0.018005371
0.029577335415476424,0.029843797896696934,-0.014255742745297196,0.03280287,0.02243214,-0.0034600156,0.10142155,-0.023278823,0.9945711,0.9948436,0.0023732118,-0.10139378,0.0,-0.99972624,-0.023399483,0.7972691528320313,-0.16280571289062498,8.350975390624999,0.3341225,-0.035962712,3.3060017,0.017944336
0.032108728987071254,0.029843797896696934,-0.015454823910789483,0.03280287,0.02243214,-0.0034600156,0.10142155,-0.023278823,0.9945711,0.9948436,0.0023732118,-0.10139378,0.0,-0.99972624,-0.023399483,0.852335791015625,-0.14604630126953125,8.262389929199218,0.34967723,-0.035962712,3.4567862,0.018249512
0.033041347671343035,0.0302434916185277,-0.016653905076281773,0.03280287,0.02243214,-0.0034600156,0.10142155,-0.023278823,0.9945711,0.9948436,0.0023732118,-0.10139378,0.0,-0.99972624,-0.023399483,0.833182177734375,-0.181959326171875,8.279149340820313,0.36467898,-0.035962712,3.6058552,0.018005371
0.0302434916185277,0.02971056665608668,-0.016387442595061263,0.03280287,0.02243214,-0.0034600156,0.10142155,-0.023278823,0.9945711,0.9948436,0.0023732118,-0.10139378,0.0,-0.99972624,-0.023399483,0.8307879760742187,-0.19632453613281248,8.33182177734375,0.3795869,-0.035962712,3.7553642,0.017944336
0.03077641658096871,0.0302434916185277,-0.015188361429568975,0.03280287,0.02243214,-0.0034600156,0.10142155,-0.023278823,0.9945711,0.9948436,0.0023732118,-0.10139378,0.0,-0.99972624,-0.023399483,0.8212111694335937,-0.21068974609375,8.24802471923828,0.394323,-0.0397434,3.9033694,0.017944336
0.03464012255866608,0.028111791768763626,-0.013323124061025418,0.03280287,0.02243214,-0.0034600156,0.10142155,-0.023278823,0.9945711,0.9948436,0.0023732118,-0.10139378,0.0,-0.99972624,-0.023399483,0.8690952026367187,-0.22266075439453123,8.233659509277343,0.40991834,-0.0437389,4.051117,0.017944336
0.030909647821578966,0.03317457891195329,-0.018652373685435583,0.03280287,0.02243214,-0.0034600156,0.10142155,-0.023278823,0.9945711,0.9948436,0.0023732118,-0.10139378,0.0,-0.99972624,-0.023399483,0.8834604125976562,-0.17238251953125,8.310273962402343,0.42582536,-0.0437389,4.2007465,0.018005371
0.037304747370871166,0.03064318534035846,-0.01572128639200999,0.03280287,0.02243214,-0.0034600156,0.10142155,-0.023278823,0.9945711,0.9948436,0.0023732118,-0.10139378,0.0,-0.99972624,-0.023399483,0.8116343627929687,-0.21308394775390624,8.267178332519531,0.4403896,-0.04756255,4.3490953,0.017944336
0.032508422708902016,0.029310872934255914,-0.014921898948348467,0.03280287,0.02243214,-0.0034600156,0.10142155,-0.023278823,0.9945711,0.9948436,0.0023732118,-0.10139378,0.0,-0.99972624,-0.023399483,0.8379705810546875,-0.21787235107421873,8.228871105957031,0.45542642,-0.051472124,4.496757,0.017944336
0.032375191468291764,0.029310872934255914,-0.015588055151399738,0.03280287,0.02243214,-0.0034600156,0.10142155,-0.023278823,0.9945711,0.9948436,0.0023732118,-0.10139378,0.0,-0.99972624,-0.023399483,0.8307879760742187,-0.1580173095703125,8.259995727539062,0.47033435,-0.051472124,4.644977,0.017944336
0.03757120985209167,0.031176110302799476,-0.0127901990985844,0.03280287,0.02243214,-0.0034600156,0.10142155,-0.023278823,0.9945711,0.9948436,0.0023732118,-0.10139378,0.0,-0.99972624,-0.023399483,0.8810662109374999,-0.15083470458984374,8.183381274414062,0.4861445,-0.051472124,4.7918224,0.017944336
0.03503981628049684,0.02971056665608668,-0.01532159267017923,0.03280287,0.02243214,-0.0034600156,0.10142155,-0.023278823,0.9945711,0.9948436,0.0023732118,-0.10139378,0.0,-0.99972624,-0.023399483,0.9026140258789062,-0.15083470458984374,8.243236315917969,0.50234133,-0.051472124,4.9397416,0.017944336
0.03450689131805583,0.029177641693645662,-0.012523736617363892,0.03280287,0.02243214,-0.0034600156,0.10142155,-0.023278823,0.9945711,0.9948436,0.0023732118,-0.10139378,0.0,-0.99972624,-0.023399483,0.8283937744140625,-0.1771709228515625,8.221688500976562,0.5172063,-0.051472124,5.0872746,0.017944336
0.03503981628049684,0.02997702913730719,-0.014255742745297196,0.03280287,0.02243214,-0.0034600156,0.10142155,-0.023278823,0.9945711,0.9948436,0.0023732118,-0.10139378,0.0,-0.99972624,-0.023399483,0.8858546142578124,-0.25139117431640623,8.212111694335936,0.53315645,-0.055998515,5.2351365,0.018005371
0.03370750387439431,0.026113323159609816,-0.01438897398590745,0.03280287,0.02243214,-0.0034600156,0.10142155,-0.023278823,0.9945711,0.9948436,0.0023732118,-0.10139378,0.0,-0.99972624,-0.023399483,0.8738836059570312,-0.28730419921875,8.197746484375,0.5488377,-0.061153997,5.38224,0.017944336
0.03290811643073278,0.028644716731204646,-0.016254211354451008,0.03280287,0.02243214,-0.0034600156,0.10142155,-0.023278823,0.9945711,0.9948436,0.0023732118,-0.10139378,0.0,-0.99972624,-0.023399483,0.8547299926757812,-0.16759411621093748,8.327033374023436,0.5641753,-0.061153997,5.531663,0.017944336
0.031575804024630234,0.0302434916185277,-0.018252679963604822,0.03280287,0.02243214,-0.0034600156,0.10142155,-0.023278823,0.9945711,0.9948436,0.0023732118,-0.10139378,0.0,-0.99972624,-0.023399483,0.8930372192382812,-0.15083470458984374,8.25520732421875,0.5802548,-0.061153997,5.680301,0.018005371
0.028378254249984136,0.02904441045303541,-0.01971822361031762,0.03280287,0.02243214,-0.0034600156,0.10142155,-0.023278823,0.9945711,0.9948436,0.0023732118,-0.10139378,0.0,-0.99972624,-0.023399483,0.8690952026367187,-0.20350714111328125,8.250418920898436,0.59611535,-0.064867906,5.8308673,0.018249512
0.03077641658096871,0.02904441045303541,-0.018252679963604822,0.03280287,0.02243214,-0.0034600156,0.10142155,-0.023278823,0.9945711,0.9948436,0.0023732118,-0.10139378,0.0,-0.99972624,-0.023399483,0.8283937744140625,-0.16280571289062498,8.202534887695313,0.6110309,-0.064867906,5.978557,0.018005371
0.03317457891195329,0.02971056665608668,-0.012656967857974145,0.03280287,0.02243214,-0.0034600156,0.10142155,-0.023278823,0.9945711,0.9948436,0.0023732118,-0.10139378,0.0,-0.99972624,-0.023399483,0.8355763793945312,-0.17477672119140625,8.2360537109375,0.6260247,-0.064867906,6.1263475,0.017944336
0.03077641658096871,0.0305099540997482,-0.014255742745297196,0.03280287,0.02243214,-0.0034600156,0.10142155,-0.023278823,0.9945711,0.9948436,0.0023732118,-0.10139378,0.0,-0.99972624,-0.023399483,0.8571241943359375,-0.1388636962890625,8.243236315917969,0.64135295,-0.064867906,6.2737637,0.0178833
0.032774885190122525,0.031176110302799476,-0.016520673835671518,0.03280287,0.02243214,-0.0034600156,0.10142155,-0.023278823,0.9945711,0.9948436,0.0023732118,-0.10139378,0.0,-0.99972624,-0.023399483,0.8164227661132812,-0.22266075439453123,8.224082702636718,0.6560031,-0.06886341,6.4213395,0.017944336
0.03543951000232761,0.03077641658096871,-0.016653905076281773,0.03280287,0.02243214,-0.0034600156,0.10142155,-0.023278823,0.9945711,0.9948436,0.0023732118,-0.10139378,0.0,-0.99972624,-0.023399483,0.8738836059570312,-0.16759411621093748,8.303091357421874,0.6716844,-0.06886341,6.570333,0.017944336
0.031975497746460996,0.03264165394951227,-0.01532159267017923,0.03280287,0.02243214,-0.0034600156,0.10142155,-0.023278823,0.9945711,0.9948436,0.0023732118,-0.10139378,0.0,-0.99972624,-0.023399483,0.8547299926757812,-0.1867477294921875,8.276755139160155,0.6870741,-0.06886341,6.719359,0.018005371
0.03011026037791744,0.03170903526524049,-0.019052067407266345,0.03280287,0.02243214,-0.0034600156,0.10142155,-0.023278823,0.9945711,0.9948436,0.0023732118,-0.10139378,0.0,-0.99972624,-0.023399483,0.8954314208984374,-0.23223756103515625,8.291120349121094,0.70314205,-0.073030755,6.8681374,0.017944336
0.03490658503988659,0.029577335415476424,-0.01572128639200999,0.03280287,0.02243214,-0.0034600156,0.10142155,-0.023278823,0.9945711,0.9948436,0.0023732118,-0.10139378,0.0,-0.99972624,-0.023399483,0.8188169677734375,-0.2442085693359375,8.259995727539062,0.7178352,-0.07741292,7.0163574,0.017944336
0.03437366007744557,0.030909647821578966,-0.014522205226517705,0.03280287,0.02243214,-0.0034600156,0.10142155,-0.023278823,0.9945711,0.9948436,0.0023732118,-0.10139378,0.0,-0.99972624,-0.023399483,0.8810662109374999,-0.201112939453125,8.269572534179687,0.7336453,-0.081021756,7.1647496,0.017944336
0.03503981628049684,0.03077641658096871,-0.017186830038722786,0.03280287,0.02243214,-0.0034600156,0.10142155,-0.023278823,0.9945711,0.9948436,0.0023732118,-0.10139378,0.0,-0.99972624,-0.023399483,0.8762778076171874,-0.15562310791015624,8.257601525878906,0.74936956,-0.081021756,7.312927,0.017944336
0.036638591167819895,0.030909647821578966,-0.016120980113840753,0.03280287,0.02243214,-0.0034600156,0.10142155,-0.023278823,0.9945711,0.9948436,0.0023732118,-0.10139378,0.0,-0.99972624,-0.023399483,0.8403647827148437,-0.1388636962890625,8.276755139160155,0.76444936,-0.081021756,7.4614477,0.017944336
0.03424042883683532,0.027578866806322613,-0.012523736617363892,0.03280287,0.02243214,-0.0034600156,0.10142155,-0.023278823,0.9945711,0.9948436,0.0023732118,-0.10139378,0.0,-0.99972624,-0.023399483,0.8020575561523438,-0.23223756103515625,8.291120349121094,0.7788907,-0.08520328,7.6107326,0.018005371
0.031042879062189218,0.03077641658096871,-0.016120980113840753,0.03280287,0.02243214,-0.0034600156,0.10142155,-0.023278823,0.9945711,0.9948436,0.0023732118,-0.10139378,0.0,-0.99972624,-0.023399483,0.8834604125976562,-0.21068974609375,8.312668164062499,0.79474384,-0.08898397,7.7598977,0.017944336
0.03503981628049684,0.03037672285913795,-0.016520673835671518,0.03280287,0.02243214,-0.0034600156,0.10142155,-0.023278823,0.9945711,0.9948436,0.0023732118,-0.10139378,0.0,-0.99972624,-0.023399483,0.7781155395507812,-0.1292868896484375,8.288726147460936,0.8087541,-0.08898397,7.909139,0.018005371
0.031975497746460996,0.027978560528153375,-0.013323124061025418,0.03280287,0.02243214,-0.0034600156,0.10142155,-0.023278823,0.9945711,0.9948436,0.0023732118,-0.10139378,0.0,-0.99972624,-0.023399483,0.8283937744140625,-0.17956512451171874,8.2743609375,0.82361907,-0.08898397,8.057617,0.017944336
0.031575804024630234,0.032774885190122525,-0.01532159267017923,0.03280287,0.02243214,-0.0034600156,0.10142155,-0.023278823,0.9945711,0.9948436,0.0023732118,-0.10139378,0.0,-0.99972624,-0.023399483,0.8259995727539062,-0.1197100830078125,8.212111694335936,0.83869314,-0.08898397,8.207484,0.018249512
0.03437366007744557,0.03144257278401998,-0.017719755001163805,0.03280287,0.02243214,-0.0034600156,0.10142155,-0.023278823,0.9945711,0.9948436,0.0023732118,-0.10139378,0.0,-0.99972624,-0.023399483,0.8858546142578124,-0.16998831787109375,8.252813122558594,0.8545892,-0.08898397,8.355576,0.017944336
0.0334410413931738,0.02997702913730719,-0.013056661579804908,0.03280287,0.02243214,-0.0034600156,0.10142155,-0.023278823,0.9945711,0.9948436,0.0023732118,-0.10139378,0.0,-0.99972624,-0.023399483,0.8451531860351562,-0.2154781494140625,8.283937744140625,0.8698065,-0.09286373,8.504731,0.018005371
0.03437366007744557,0.0302434916185277,-0.015854517632620246,0.03280287,0.02243214,-0.0034600156,0.10142155,-0.023278823,0.9945711,0.9948436,0.0023732118,-0.10139378,0.0,-0.99972624,-0.023399483,0.8810662109374999,-0.277727392578125,8.1594392578125,0.88561666,-0.097847365,8.651147,0.017944336
0.03503981628049684,0.03077641658096871,-0.017453292519943295,0.03280287,0.02243214,-0.0034600156,0.10142155,-0.023278823,0.9945711,0.9948436,0.0023732118,-0.10139378,0.0,-0.99972624,-0.023399483,0.8451531860351562,-0.1771709228515625,8.231265307617187,0.90078235,-0.097847365,8.798851,0.017944336
0.03170903526524049,0.02624655440022007,-0.01438897398590745,0.03280287,0.02243214,-0.0034600156,0.10142155,-0.023278823,0.9945711,0.9948436,0.0023732118,-0.10139378,0.0,-0.99972624,-0.023399483,0.8499415893554687,-0.17956512451171874,8.190563879394531,0.9159821,-0.097847365,8.945325,0.0178833
0.030909647821578966,0.027978560528153375,-0.01692036755750228,0.03280287,0.02243214,-0.0034600156,0.10142155,-0.023278823,0.9945711,0.9948436,0.0023732118,-0.10139378,0.0,-0.99972624,-0.023399483,0.8283937744140625,-0.17477672119140625,8.259995727539062,0.93089765,-0.097847365,9.094049,0.018005371
0.031842266505850744,0.031842266505850744,-0.012656967857974145,0.03280287,0.02243214,-0.0034600156,0.10142155,-0.023278823,0.9945711,0.9948436,0.0023732118,-0.10139378,0.0,-0.99972624,-0.023399483,0.8882488159179687,-0.17238251953125,8.28633194580078,0.9468367,-0.097847365,9.242743,0.017944336
0.0302434916185277,0.029310872934255914,-0.014655436467127957,0.03280287,0.02243214,-0.0034600156,0.10142155,-0.023278823,0.9945711,0.9948436,0.0023732118,-0.10139378,0.0,-0.99972624,-0.023399483,0.8020575561523438,-0.17477672119140625,8.310273962402343,0.9612291,-0.097847365,9.391865,0.017944336
0.032774885190122525,0.026646248122050836,-0.013056661579804908,0.03280287,0.02243214,-0.0034600156,0.10142155,-0.023278823,0.9945711,0.9948436,0.0023732118,-0.10139378,0.0,-0.99972624,-0.023399483,0.8451531860351562,-0.15322890625,8.173804467773436,0.9763948,-0.097847365,9.538538,0.017944336
0.033041347671343035,0.027845329287543123,-0.014788667707738212,0.03280287,0.02243214,-0.0034600156,0.10142155,-0.023278823,0.9945711,0.9948436,0.0023732118,-0.10139378,0.0,-0.99972624,-0.023399483,0.8044517578125,-0.17238251953125,8.281543542480469,0.9908301,-0.097847365,9.687145,0.017944336
0.03357427263378405,0.028245023009373885,-0.016120980113840753,0.03280287,0.02243214,-0.0034600156,0.10142155,-0.023278823,0.9945711,0.9948436,0.0023732118,-0.10139378,0.0,-0.99972624,-0.023399483,0.8738836059570312,-0.201112939453125,8.28633194580078,1.0065113,-0.1014562,9.835838,0.017944336
0.03130934154340973,0.03317457891195329,-0.01532159267017923,0.03280287,0.02243214,-0.0034600156,0.10142155,-0.023278823,0.9945711,0.9948436,0.0023732118,-0.10139378,0.0,-0.99972624,-0.023399483,0.8738836059570312,-0.24181436767578124,8.188169677734374,1.0221926,-0.1057954,9.98277,0.017944336
0.03743797861148142,0.031575804024630234,-0.01945176112909711,0.03280287,0.02243214,-0.0034600156,0.10142155,-0.023278823,0.9945711,0.9948436,0.0023732118,-0.10139378,0.0,-0.99972624,-0.023399483,0.833182177734375,-0.143652099609375,8.228871105957031,1.0371435,-0.1057954,10.130431,0.017944336
0.036372128686599385,0.029310872934255914,-0.014655436467127957,0.03280287,0.02243214,-0.0034600156,0.10142155,-0.023278823,0.9945711,0.9948436,0.0023732118,-0.10139378,0.0,-0.99972624,-0.023399483,0.8212111694335937,-0.181959326171875,8.21690009765625,1.0518795,-0.1057954,10.277878,0.017944336
0.03077641658096871,0.02971056665608668,-0.015588055151399738,0.03280287,0.02243214,-0.0034600156,0.10142155,-0.023278823,0.9945711,0.9948436,0.0023732118,-0.10139378,0.0,-0.99972624,-0.023399483,0.8044517578125,-0.20350714111328125,8.300697155761718,1.0663149,-0.109447196,10.426828,0.017944336
0.033041347671343035,0.02904441045303541,-0.01958499236970736,0.03280287,0.02243214,-0.0034600156,0.10142155,-0.023278823,0.9945711,0.9948436,0.0023732118,-0.10139378,0.0,-0.99972624,-0.023399483,0.8667010009765624,-0.18435352783203124,8.176198669433592,1.0821319,-0.109447196,10.57604,0.018249512
0.029843797896696934,0.02971056665608668,-0.017719755001163805,0.03280287,0.02243214,-0.0034600156,0.10142155,-0.023278823,0.9945711,0.9948436,0.0023732118,-0.10139378,0.0,-0.99972624,-0.023399483,0.8906430175781249,-0.14604630126953125,8.279149340820313,1.0980595,-0.109447196,10.724099,0.0178833
0.032508422708902016,0.03077641658096871,-0.015588055151399738,0.03280287,0.02243214,-0.0034600156,0.10142155,-0.023278823,0.9945711,0.9948436,0.0023732118,-0.10139378,0.0,-0.99972624,-0.023399483,0.82360537109375,-0.19153613281249998,8.28633194580078,1.1128386,-0.109447196,10.872792,0.017944336
0.031176110302799476,0.027045941843881597,-0.015588055151399738,0.03280287,0.02243214,-0.0034600156,0.10142155,-0.023278823,0.9945711,0.9948436,0.0023732118,-0.10139378,0.0,-0.99972624,-0.023399483,0.86191259765625,-0.1771709228515625,8.228871105957031,1.1283051,-0.109447196,11.020453,0.017944336
0.03450689131805583,0.0287779479718149,-0.013989280264076687,0.03280287,0.02243214,-0.0034600156,0.10142155,-0.023278823,0.9945711,0.9948436,0.0023732118,-0.10139378,0.0,-0.99972624,-0.023399483,0.8643067993164062,-0.19871873779296872,8.291120349121094,1.1438144,-0.109447196,11.169232,0.017944336
0.032241960227681506,0.028911179212425153,-0.016520673835671518,0.03280287,0.02243214,-0.0034600156,0.10142155,-0.023278823,0.9945711,0.9948436,0.0023732118,-0.10139378,0.0,-0.99972624,-0.023399483,0.8499415893554687,-0.17238251953125,8.295908752441406,1.1590142,-0.109447196,11.317591,0.0178833
0.03477335379927634,0.028911179212425153,-0.016254211354451008,0.03280287,0.02243214,-0.0034600156,0.10142155,-0.023278823,0.9945711,0.9948436,0.0023732118,-0.10139378,0.0,-0.99972624,-0.023399483,0.8307879760742187,-0.11252747802734374,8.195352282714843,1.1739222,-0.109447196,11.464651,0.017944336
0.03264165394951227,0.029843797896696934,-0.01732006127933304,0.03280287,0.02243214,-0.0034600156,0.10142155,-0.023278823,0.9945711,0.9948436,0.0023732118,-0.10139378,0.0,-0.99972624,-0.023399483,0.852335791015625,-0.11252747802734374,8.24802471923828,1.1892167,-0.109447196,11.612657,0.017944336
0.03144257278401998,0.030909647821578966,-0.018652373685435583,0.03280287,0.02243214,-0.0034600156,0.10142155,-0.023278823,0.9945711,0.9948436,0.0023732118,-0.10139378,0.0,-0.99972624,-0.023399483,0.8212111694335937,-0.12210428466796874,8.250418920898436,1.2039528,-0.109447196,11.760705,0.017944336
0.03810413481453269,0.029843797896696934,-0.017586523760553547,0.03280287,0.02243214,-0.0034600156,0.10142155,-0.023278823,0.9945711,0.9948436,0.0023732118,-0.10139378,0.0,-0.99972624,-0.023399483,0.8259995727539062,-0.22266075439453123,8.207323291015625,1.2187748,-0.1134427,11.90798,0.017944336
0.03370750387439431,0.03064318534035846,-0.01732006127933304,0.03280287,0.02243214,-0.0034600156,0.10142155,-0.023278823,0.9945711,0.9948436,0.0023732118,-0.10139378,0.0,-0.99972624,-0.023399483,0.8068459594726562,-0.2442085693359375,8.243236315917969,1.2332039,-0.11780995,12.055396,0.0178833
0.036771822408430146,0.032774885190122525,-0.018252679963604822,0.03280287,0.02243214,-0.0034600156,0.10142155,-0.023278823,0.9945711,0.9948436,0.0023732118,-0.10139378,0.0,-0.99972624,-0.023399483,0.8307879760742187,-0.22744915771484372,8.238447912597655,1.2481118,-0.12189137,12.20323,0.017944336
0.031042879062189218,0.026646248122050836,-0.013323124061025418,0.03280287,0.02243214,-0.0034600156,0.10142155,-0.023278823,0.9945711,0.9948436,0.0023732118,-0.10139378,0.0,-0.99972624,-0.023399483,0.8116343627929687,-0.181959326171875,8.238447912597655,1.2626761,-0.12189137,12.351064,0.017944336
0.02997702913730719,0.02904441045303541,-0.013856049023466432,0.03280287,0.02243214,-0.0034600156,0.10142155,-0.023278823,0.9945711,0.9948436,0.0023732118,-0.10139378,0.0,-0.99972624,-0.023399483,0.852335791015625,-0.19393033447265623,8.214505895996094,1.2780228,-0.12189137,12.498969,0.018005371
0.031176110302799476,0.033041347671343035,-0.01532159267017923,0.03280287,0.02243214,-0.0034600156,0.10142155,-0.023278823,0.9945711,0.9948436,0.0023732118,-0.10139378,0.0,-0.99972624,-0.023399483,0.8355763793945312,-0.18914193115234373,8.2360537109375,1.2930167,-0.12189137,12.64676,0.017944336
0.031042879062189218,0.031176110302799476,-0.013989280264076687,0.03280287,0.02243214,-0.0034600156,0.10142155,-0.023278823,0.9945711,0.9948436,0.0023732118,-0.10139378,0.0,-0.99972624,-0.023399483,0.8595183959960937,-0.21787235107421873,8.295908752441406,1.30865,-0.12585413,12.79765,0.018188477
0.03011026037791744,0.027978560528153375,-0.015454823910789483,0.03280287,0.02243214,-0.0034600156,0.10142155,-0.023278823,0.9945711,0.9948436,0.0023732118,-0.10139378,0.0,-0.99972624,-0.023399483,0.7900865478515624,-0.201112939453125,8.243236315917969,1.3228759,-0.12947525,12.946073,0.018005371
0.033041347671343035,0.027845329287543123,-0.014655436467127957,0.03280287,0.02243214,-0.0034600156,0.10142155,-0.023278823,0.9945711,0.9948436,0.0023732118,-0.10139378,0.0,-0.99972624,-0.023399483,0.8547299926757812,-0.1771709228515625,8.303091357421874,1.3381612,-0.12947525,13.09456,0.0178833
0.031042879062189218,0.03077641658096871,-0.01345635530163567,0.03280287,0.02243214,-0.0034600156,0.10142155,-0.023278823,0.9945711,0.9948436,0.0023732118,-0.10139378,0.0,-0.99972624,-0.023399483,0.7829039428710937,-0.22026655273437498,8.295908752441406,1.3522099,-0.13342778,13.243424,0.017944336
0.03424042883683532,0.028644716731204646,-0.017186830038722786,0.03280287,0.02243214,-0.0034600156,0.10142155,-0.023278823,0.9945711,0.9948436,0.0023732118,-0.10139378,0.0,-0.99972624,-0.023399483,0.7517793212890624,-0.1771709228515625,8.269572534179687,1.365746,-0.13342778,13.392322,0.018005371
0.032108728987071254,0.0287779479718149,-0.017852986241774057,0.03280287,0.02243214,-0.0034600156,0.10142155,-0.023278823,0.9945711,0.9948436,0.0023732118,-0.10139378,0.0,-0.99972624,-0.023399483,0.8020575561523438,-0.1580173095703125,8.212111694335936,1.3801384,-0.13342778,13.539682,0.017944336
0.03130934154340973,0.03130934154340973,-0.01345635530163567,0.03280287,0.02243214,-0.0034600156,0.10142155,-0.023278823,0.9945711,0.9948436,0.0023732118,-0.10139378,0.0,-0.99972624,-0.023399483,0.9026140258789062,-0.18914193115234373,8.267178332519531,1.3962802,-0.13342778,13.687527,0.0178833
0.03170903526524049,0.0302434916185277,-0.017453292519943295,0.03280287,0.02243214,-0.0034600156,0.10142155,-0.023278823,0.9945711,0.9948436,0.0023732118,-0.10139378,0.0,-0.99972624,-0.023399483,0.8212111694335937,-0.296881005859375,8.28633194580078,1.4110162,-0.13875511,13.83622,0.017944336
0.03424042883683532,0.03130934154340973,-0.013989280264076687,0.03280287,0.02243214,-0.0034600156,0.10142155,-0.023278823,0.9945711,0.9948436,0.0023732118,-0.10139378,0.0,-0.99972624,-0.023399483,0.8571241943359375,-0.16280571289062498,8.269572534179687,1.4263967,-0.13875511,13.9846115,0.017944336
0.03064318534035846,0.03264165394951227,-0.015188361429568975,0.03280287,0.02243214,-0.0034600156,0.10142155,-0.023278823,0.9945711,0.9948436,0.0023732118,-0.10139378,0.0,-0.99972624,-0.023399483,0.8164227661132812,-0.15562310791015624,8.303091357421874,1.440997,-0.13875511,14.133099,0.0178833
0.037171516130260915,0.02997702913730719,-0.0127901990985844,0.03280287,0.02243214,-0.0034600156,0.10142155,-0.023278823,0.9945711,0.9948436,0.0023732118,-0.10139378,0.0,-0.99972624,-0.023399483,0.82360537109375,-0.1149216796875,8.264784130859374,1.4557761,-0.13875511,14.2814045,0.017944336
0.031575804024630234,0.027712098046932865,-0.018652373685435583,0.03280287,0.02243214,-0.0034600156,0.10142155,-0.023278823,0.9945711,0.9948436,0.0023732118,-0.10139378,0.0,-0.99972624,-0.023399483,0.8116343627929687,-0.19632453613281248,8.257601525878906,1.4703404,-0.13875511,14.429582,0.017944336
0.03130934154340973,0.029577335415476424,-0.018385911204215073,0.03280287,0.02243214,-0.0034600156,0.10142155,-0.023278823,0.9945711,0.9948436,0.0023732118,-0.10139378,0.0,-0.99972624,-0.023399483,0.9050082275390624,-0.18435352783203124,8.312668164062499,1.4865249,-0.13875511,14.578239,0.0178833
0.031842266505850744,0.03037672285913795,-0.01532159267017923,0.03280287,0.02243214,-0.0034600156,0.10142155,-0.023278823,0.9945711,0.9948436,0.0023732118,-0.10139378,0.0,-0.99972624,-0.023399483,0.8571241943359375,-0.2609679809570312,8.250418920898436,1.5019054,-0.14343801,14.726288,0.017944336
0.03290811643073278,0.031575804024630234,-0.017453292519943295,0.03280287,0.02243214,-0.0034600156,0.10142155,-0.023278823,0.9945711,0.9948436,0.0023732118,-0.10139378,0.0,-0.99972624,-0.023399483,0.8307879760742187,-0.19871873779296872,8.312668164062499,1.5168134,-0.14343801,14.875453,0.017944336
0.03557274124293786,0.02598009191899956,-0.016787136316892024,0.03280287,0.02243214,-0.0034600156,0.10142155,-0.023278823,0.9945711,0.9948436,0.0023732118,-0.10139378,0.0,-0.99972624,-0.023399483,0.8667010009765624,-0.1771709228515625,8.305485559082031,1.5323658,-0.14343801,15.024489,0.017944336
0.03264165394951227,0.026646248122050836,-0.015188361429568975,0.03280287,0.02243214,-0.0034600156,0.10142155,-0.023278823,0.9945711,0.9948436,0.0023732118,-0.10139378,0.0,-0.99972624,-0.023399483,0.7852981445312499,-0.21068974609375,8.334215979003906,1.5466971,-0.147283,15.176585,0.018249512
0.033307810152563545,0.028111791768763626,-0.017186830038722786,0.03280287,0.02243214,-0.0034600156,0.10142155,-0.023278823,0.9945711,0.9948436,0.0023732118,-0.10139378,0.0,-0.99972624,-0.023399483,0.9145850341796874,-0.15562310791015624,8.262389929199218,1.5631088,-0.147283,15.324848,0.017944336
0.031975497746460996,0.032508422708902016,-0.01438897398590745,0.03280287,0.02243214,-0.0034600156,0.10142155,-0.023278823,0.9945711,0.9948436,0.0023732118,-0.10139378,0.0,-0.99972624,-0.023399483,0.7613561279296874,-0.16041151123046873,8.312668164062499,1.5767244,-0.147283,15.473506,0.0178833
0.0334410413931738,0.02851148549059439,-0.014255742745297196,0.03280287,0.02243214,-0.0034600156,0.10142155,-0.023278823,0.9945711,0.9948436,0.0023732118,-0.10139378,0.0,-0.99972624,-0.023399483,0.8643067993164062,-0.19393033447265623,8.259995727539062,1.5922338,-0.147283,15.621726,0.017944336
0.032508422708902016,0.031176110302799476,-0.016787136316892024,0.03280287,0.02243214,-0.0034600156,0.10142155,-0.023278823,0.9945711,0.9948436,0.0023732118,-0.10139378,0.0,-0.99972624,-0.023399483,0.7972691528320313,-0.16041151123046873,8.32463917236328,1.6064916,-0.147283,15.770598,0.0178833
0.03144257278401998,0.02717917308449185,-0.011457886692481857,0.03280287,0.02243214,-0.0034600156,0.10142155,-0.023278823,0.9945711,0.9948436,0.0023732118,-0.10139378,0.0,-0.99972624,-0.023399483,0.8954314208984374,-0.19632453613281248,8.319850769042969,1.6225048,-0.147283,15.919385,0.0178833
0.03464012255866608,0.028245023009373885,-0.016653905076281773,0.03280287,0.02243214,-0.0034600156,0.10142155,-0.023278823,0.9945711,0.9948436,0.0023732118,-0.10139378,0.0,-0.99972624,-0.023399483,0.8020575561523438,-0.16041151123046873,8.20971749267578,1.6368972,-0.147283,16.066704,0.017944336
0.031042879062189218,0.02997702913730719,-0.014522205226517705,0.03280287,0.02243214,-0.0034600156,0.10142155,-0.023278823,0.9945711,0.9948436,0.0023732118,-0.10139378,0.0,-0.99972624,-0.023399483,0.8786720092773437,-0.19153613281249998,8.264784130859374,1.6526644,-0.147283,16.21501,0.017944336
0.0302434916185277,0.02904441045303541,-0.014921898948348467,0.03280287,0.02243214,-0.0034600156,0.10142155,-0.023278823,0.9945711,0.9948436,0.0023732118,-0.10139378,0.0,-0.99972624,-0.023399483,0.8355763793945312,-0.20829554443359374,8.188169677734374,1.6676583,-0.15102072,16.36194,0.017944336
0.02971056665608668,0.03170903526524049,-0.010392036767599824,0.03280287,0.02243214,-0.0034600156,0.10142155,-0.023278823,0.9945711,0.9948436,0.0023732118,-0.10139378,0.0,-0.99972624,-0.023399483,0.8762778076171874,-0.19632453613281248,8.21690009765625,1.6833291,-0.15102072,16.508886,0.0178833
0.031975497746460996,0.03144257278401998,-0.01532159267017923,0.03280287,0.02243214,-0.0034600156,0.10142155,-0.023278823,0.9945711,0.9948436,0.0023732118,-0.10139378,0.0,-0.99972624,-0.023399483,0.8451531860351562,-0.22266075439453123,8.202534887695313,1.6984948,-0.15501621,16.656075,0.017944336
0.0334410413931738,0.03011026037791744,-0.016120980113840753,0.03280287,0.02243214,-0.0034600156,0.10142155,-0.023278823,0.9945711,0.9948436,0.0023732118,-0.10139378,0.0,-0.99972624,-0.023399483,0.8643067993164062,-0.09816226806640624,8.2360537109375,1.7140042,-0.15501621,16.803865,0.017944336
0.03770444109270193,0.031575804024630234,-0.012923430339194655,0.03280287,0.02243214,-0.0034600156,0.10142155,-0.023278823,0.9945711,0.9948436,0.0023732118,-0.10139378,0.0,-0.99972624,-0.023399483,0.8092401611328125,-0.13646949462890623,8.212111694335936,1.7285749,-0.15501621,16.951727,0.018005371
0.035173047521107094,0.028378254249984136,-0.01505513018895872,0.03280287,0.02243214,-0.0034600156,0.10142155,-0.023278823,0.9945711,0.9948436,0.0023732118,-0.10139378,0.0,-0.99972624,-0.023399483,0.8116343627929687,-0.1771709228515625,8.267178332519531,1.7431391,-0.15501621,17.100077,0.017944336
0.03170903526524049,0.028245023009373885,-0.014655436467127957,0.03280287,0.02243214,-0.0034600156,0.10142155,-0.023278823,0.9945711,0.9948436,0.0023732118,-0.10139378,0.0,-0.99972624,-0.023399483,0.8714894042968749,-0.2346317626953125,8.259995727539062,1.7587775,-0.15922652,17.248297,0.017944336
0.03144257278401998,0.03064318534035846,-0.014921898948348467,0.03280287,0.02243214,-0.0034600156,0.10142155,-0.023278823,0.9945711,0.9948436,0.0023732118,-0.10139378,0.0,-0.99972624,-0.023399483,0.8379705810546875,-0.2059013427734375,8.339004382324218,1.7737632,-0.16290872,17.397427,0.0178833
0.03530627876171736,0.028644716731204646,-0.015454823910789483,0.03280287,0.02243214,-0.0034600156,0.10142155,-0.023278823,0.9945711,0.9948436,0.0023732118,-0.10139378,0.0,-0.99972624,-0.023399483,0.8643067993164062,-0.1484405029296875,8.17859287109375,1.7895892,-0.16290872,17.54718,0.018310547
0.031975497746460996,0.029310872934255914,-0.01692036755750228,0.03280287,0.02243214,-0.0034600156,0.10142155,-0.023278823,0.9945711,0.9948436,0.0023732118,-0.10139378,0.0,-0.99972624,-0.023399483,0.8930372192382812,-0.10773907470703124,8.322244970703125,1.8056141,-0.16290872,17.696518,0.017944336
0.0287779479718149,0.03144257278401998,-0.012656967857974145,0.03280287,0.02243214,-0.0034600156,0.10142155,-0.023278823,0.9945711,0.9948436,0.0023732118,-0.10139378,0.0,-0.99972624,-0.023399483,0.7876923461914062,-0.1292868896484375,8.377311608886718,1.8197968,-0.16290872,17.847355,0.018005371
0.03264165394951227,0.030909647821578966,-0.01705359879811253,0.03280287,0.02243214,-0.0034600156,0.10142155,-0.023278823,0.9945711,0.9948436,0.0023732118,-0.10139378,0.0,-0.99972624,-0.023399483,0.82360537109375,-0.2442085693359375,8.214505895996094,1.8345759,-0.16729088,17.994759,0.017944336
0.03357427263378405,0.028911179212425153,-0.018119448722994567,0.03280287,0.02243214,-0.0034600156,0.10142155,-0.023278823,0.9945711,0.9948436,0.0023732118,-0.10139378,0.0,-0.99972624,-0.023399483,0.8571241943359375,-0.181959326171875,8.221688500976562,1.8499564,-0.16729088,18.142292,0.017944336
0.03170903526524049,0.0302434916185277,-0.01572128639200999,0.03280287,0.02243214,-0.0034600156,0.10142155,-0.023278823,0.9945711,0.9948436,0.0023732118,-0.10139378,0.0,-0.99972624,-0.023399483,0.814028564453125,-0.1867477294921875,8.243236315917969,1.8645636,-0.16729088,18.29021,0.017944336
0.03424042883683532,0.03130934154340973,-0.01345635530163567,0.03280287,0.02243214,-0.0034600156,0.10142155,-0.023278823,0.9945711,0.9948436,0.0023732118,-0.10139378,0.0,-0.99972624,-0.023399483,0.86191259765625,-0.19393033447265623,8.207323291015625,1.88003,-0.16729088,18.437485,0.017944336
0.03503981628049684,0.029177641693645662,-0.016254211354451008,0.03280287,0.02243214,-0.0034600156,0.10142155,-0.023278823,0.9945711,0.9948436,0.0023732118,-0.10139378,0.0,-0.99972624,-0.023399483,0.7948749511718749,-0.17477672119140625,8.21690009765625,1.8946332,-0.16729088,18.588442,0.018371582
0.03077641658096871,0.02904441045303541,-0.01438897398590745,0.03280287,0.02243214,-0.0034600156,0.10142155,-0.023278823,0.9945711,0.9948436,0.0023732118,-0.10139378,0.0,-0.99972624,-0.023399483,0.7924807495117187,-0.16041151123046873,8.2743609375,1.9104016,-0.16729088,18.75308,0.019897461
0.029444104174866172,0.0305099540997482,-0.014921898948348467,0.03280287,0.02243214,-0.0034600156,0.10142155,-0.023278823,0.9945711,0.9948436,0.0023732118,-0.10139378,0.0,-0.99972624,-0.023399483,0.8044517578125,-0.181959326171875,8.259995727539062,1.926359,-0.16729088,18.91693,0.019836426
0.02997702913730719,0.0305099540997482,-0.014921898948348467,0.03280287,0.02243214,-0.0034600156,0.10142155,-0.023278823,0.9945711,0.9948436,0.0023732118,-0.10139378,0.0,-0.99972624,-0.023399483,0.8858546142578124,-0.22505495605468748,8.180987072753906,1.9439853,-0.1717689,19.07971,0.019897461
0.03384073511500456,0.02851148549059439,-0.01438897398590745,0.03280287,0.02243214,-0.0034600156,0.10142155,-0.023278823,0.9945711,0.9948436,0.0023732118,-0.10139378,0.0,-0.99972624,-0.023399483,0.7781155395507812,-0.201112939453125,8.257601525878906,1.9594679,-0.17577054,19.244015,0.019897461
0.032108728987071254,0.027712098046932865,-0.015188361429568975,0.03280287,0.02243214,-0.0034600156,0.10142155,-0.023278823,0.9945711,0.9948436,0.0023732118,-0.10139378,0.0,-0.99972624,-0.023399483,0.8930372192382812,-0.17477672119140625,8.307879760742187,1.9772916,-0.17577054,19.409828,0.019958496
0.036771822408430146,0.031176110302799476,-0.012923430339194655,0.03280287,0.02243214,-0.0034600156,0.10142155,-0.023278823,0.9945711,0.9948436,0.0023732118,-0.10139378,0.0,-0.99972624,-0.023399483,0.814028564453125,-0.11731588134765625,8.319850769042969,1.9935384,-0.17577054,19.57588,0.019958496
0.031975497746460996,0.03011026037791744,-0.01372281778285618,0.03280287,0.02243214,-0.0034600156,0.10142155,-0.023278823,0.9945711,0.9948436,0.0023732118,-0.10139378,0.0,-0.99972624,-0.023399483,0.852335791015625,-0.22026655273437498,8.267178332519531,2.0105498,-0.18016672,19.740881,0.019958496
0.032774885190122525,0.0305099540997482,-0.01532159267017923,0.03280287,0.02243214,-0.0034600156,0.10142155,-0.023278823,0.9945711,0.9948436,0.0023732118,-0.10139378,0.0,-0.99972624,-0.023399483,0.8068459594726562,-0.1771709228515625,8.212111694335936,2.026604,-0.18016672,19.904282,0.019897461
0.03264165394951227,0.02464777951289702,-0.013056661579804908,0.03280287,0.02243214,-0.0034600156,0.10142155,-0.023278823,0.9945711,0.9948436,0.0023732118,-0.10139378,0.0,-0.99972624,-0.023399483,0.8858546142578124,-0.13407529296874998,8.310273962402343,2.0447168,-0.18016672,20.0742,0.020446777
0.0334410413931738,0.0302434916185277,-0.014255742745297196,0.03280287,0.02243214,-0.0034600156,0.10142155,-0.023278823,0.9945711,0.9948436,0.0023732118,-0.10139378,0.0,-0.99972624,-0.023399483,0.8595183959960937,-0.2059013427734375,8.288726147460936,2.061819,-0.18426363,20.239124,0.019897461
0.03290811643073278,0.029444104174866172,-0.014522205226517705,0.03280287,0.02243214,-0.0034600156,0.10142155,-0.023278823,0.9945711,0.9948436,0.0023732118,-0.10139378,0.0,-0.99972624,-0.023399483,0.7757213378906249,-0.201112939453125,8.32463917236328,2.077254,-0.18826526,20.404764,0.019897461
0.0334410413931738,0.031176110302799476,-0.01438897398590745,0.03280287,0.02243214,-0.0034600156,0.10142155,-0.023278823,0.9945711,0.9948436,0.0023732118,-0.10139378,0.0,-0.99972624,-0.023399483,0.8762778076171874,-0.16280571289062498,8.291120349121094,2.0946898,-0.18826526,20.569736,0.019897461
0.031842266505850744,0.03170903526524049,-0.015188361429568975,0.03280287,0.02243214,-0.0034600156,0.10142155,-0.023278823,0.9945711,0.9948436,0.0023732118,-0.10139378,0.0,-0.99972624,-0.023399483,0.7924807495117187,-0.18435352783203124,8.312668164062499,2.1104581,-0.18826526,20.735138,0.019897461
0.03397396635561481,0.029444104174866172,-0.01505513018895872,0.03280287,0.02243214,-0.0034600156,0.10142155,-0.023278823,0.9945711,0.9948436,0.0023732118,-0.10139378,0.0,-0.99972624,-0.023399483,0.8882488159179687,-0.1771709228515625,8.164227661132813,2.128132,-0.18826526,20.897585,0.019897461
0.031042879062189218,0.0302434916185277,-0.01851914244482533,0.03280287,0.02243214,-0.0034600156,0.10142155,-0.023278823,0.9945711,0.9948436,0.0023732118,-0.10139378,0.0,-0.99972624,-0.023399483,0.8451531860351562,-0.14125789794921875,8.226476904296874,2.145,-0.18826526,21.061773,0.019958496
0.036105666205378875,0.02744563556571236,-0.01692036755750228,0.03280287,0.02243214,-0.0034600156,0.10142155,-0.023278823,0.9945711,0.9948436,0.0023732118,-0.10139378,0.0,-0.99972624,-0.023399483,0.8259995727539062,-0.12210428466796874,8.252813122558594,2.1614857,-0.18826526,21.226486,0.019958496
0.032774885190122525,0.031176110302799476,-0.017586523760553547,0.03280287,0.02243214,-0.0034600156,0.10142155,-0.023278823,0.9945711,0.9948436,0.0023732118,-0.10139378,0.0,-0.99972624,-0.023399483,0.8116343627929687,-0.20350714111328125,8.384494213867187,2.1776848,-0.19232696,21.393827,0.019958496
0.031575804024630234,0.03290811643073278,-0.015454823910789483,0.03280287,0.02243214,-0.0034600156,0.10142155,-0.023278823,0.9945711,0.9948436,0.0023732118,-0.10139378,0.0,-0.99972624,-0.023399483,0.8738836059570312,-0.16998831787109375,8.197746484375,2.1951263,-0.19232696,21.557442,0.019958496
0.032241960227681506,0.026113323159609816,-0.013856049023466432,0.03280287,0.02243214,-0.0034600156,0.10142155,-0.023278823,0.9945711,0.9948436,0.0023732118,-0.10139378,0.0,-0.99972624,-0.023399483,0.8786720092773437,-0.16759411621093748,8.195352282714843,2.2126632,-0.19232696,21.721008,0.019958496
0.03357427263378405,0.02971056665608668,-0.017186830038722786,0.03280287,0.02243214,-0.0034600156,0.10142155,-0.023278823,0.9945711,0.9948436,0.0023732118,-0.10139378,0.0,-0.99972624,-0.023399483,0.8571241943359375,-0.1867477294921875,8.259995727539062,2.2297702,-0.19232696,21.885866,0.019958496
0.033041347671343035,0.028111791768763626,-0.019984686091538122,0.03280287,0.02243214,-0.0034600156,0.10142155,-0.023278823,0.9945711,0.9948436,0.0023732118,-0.10139378,0.0,-0.99972624,-0.023399483,0.8882488159179687,-0.19632453613281248,8.233659509277343,2.2474983,-0.19232696,22.050198,0.019958496
0.03370750387439431,0.022382848422522698,-0.015188361429568975,0.03280287,0.02243214,-0.0034600156,0.10142155,-0.023278823,0.9945711,0.9948436,0.0023732118,-0.10139378,0.0,-0.99972624,-0.023399483,0.833182177734375,-0.181959326171875,8.212111694335936,2.2640765,-0.19232696,22.213598,0.019897461
0.031575804024630234,0.029843797896696934,-0.015854517632620246,0.03280287,0.02243214,-0.0034600156,0.10142155,-0.023278823,0.9945711,0.9948436,0.0023732118,-0.10139378,0.0,-0.99972624,-0.023399483,0.8810662109374999,-0.15083470458984374,8.267178332519531,2.2816613,-0.19232696,22.3786,0.019958496
0.03424042883683532,0.02691271060327134,-0.017719755001163805,0.03280287,0.02243214,-0.0034600156,0.10142155,-0.023278823,0.9945711,0.9948436,0.0023732118,-0.10139378,0.0,-0.99972624,-0.023399483,0.814028564453125,-0.19393033447265623,8.288726147460936,2.2983055,-0.19232696,22.548077,0.020446777
0.03290811643073278,0.02691271060327134,-0.015854517632620246,0.03280287,0.02243214,-0.0034600156,0.10142155,-0.023278823,0.9945711,0.9948436,0.0023732118,-0.10139378,0.0,-0.99972624,-0.023399483,0.9193734375,-0.16998831787109375,8.240842114257813,2.3165987,-0.19232696,22.712048,0.019897461
0.033307810152563545,0.031842266505850744,-0.015854517632620246,0.03280287,0.02243214,-0.0034600156,0.10142155,-0.023278823,0.9945711,0.9948436,0.0023732118,-0.10139378,0.0,-0.99972624,-0.023399483,0.82360537109375,-0.19632453613281248,8.32463917236328,2.3329864,-0.19232696,22.877687,0.019897461
0.03424042883683532,0.0305099540997482,-0.01705359879811253,0.03280287,0.02243214,-0.0034600156,0.10142155,-0.023278823,0.9945711,0.9948436,0.0023732118,-0.10139378,0.0,-0.99972624,-0.023399483,0.9074024291992187,-0.23223756103515625,8.310273962402343,2.3510413,-0.1969479,23.043041,0.019897461
0.03530627876171736,0.03077641658096871,-0.015188361429568975,0.03280287,0.02243214,-0.0034600156,0.10142155,-0.023278823,0.9945711,0.9948436,0.0023732118,-0.10139378,0.0,-0.99972624,-0.023399483,0.9002198242187499,-0.19871873779296872,8.317456567382813,2.3690083,-0.1969479,23.209045,0.019958496
0.031176110302799476,0.031042879062189218,-0.015854517632620246,0.03280287,0.02243214,-0.0034600156,0.10142155,-0.023278823,0.9945711,0.9948436,0.0023732118,-0.10139378,0.0,-0.99972624,-0.023399483,0.8355763793945312,-0.16041151123046873,8.305485559082031,2.3856342,-0.1969479,23.374304,0.019897461
0.03410719759622506,0.03144257278401998,-0.013056661579804908,0.03280287,0.02243214,-0.0034600156,0.10142155,-0.023278823,0.9945711,0.9948436,0.0023732118,-0.10139378,0.0,-0.99972624,-0.023399483,0.9050082275390624,-0.19632453613281248,8.339004382324218,2.4036968,-0.1969479,23.540737,0.019958496
0.032508422708902016,0.031176110302799476,-0.016387442595061263,0.03280287,0.02243214,-0.0034600156,0.10142155,-0.023278823,0.9945711,0.9948436,0.0023732118,-0.10139378,0.0,-0.99972624,-0.023399483,0.8547299926757812,-0.23223756103515625,8.288726147460936,2.4207559,-0.20158301,23.706167,0.019958496
0.03317457891195329,0.031042879062189218,-0.015987748873230498,0.03280287,0.02243214,-0.0034600156,0.10142155,-0.023278823,0.9945711,0.9948436,0.0023732118,-0.10139378,0.0,-0.99972624,-0.023399483,0.8499415893554687,-0.201112939453125,8.281543542480469,2.4376676,-0.20558465,23.870949,0.019897461
0.03144257278401998,0.028111791768763626,-0.01532159267017923,0.03280287,0.02243214,-0.0034600156,0.10142155,-0.023278823,0.9945711,0.9948436,0.0023732118,-0.10139378,0.0,-0.99972624,-0.023399483,0.9050082275390624,-0.23223756103515625,8.231265307617187,2.455675,-0.21020558,24.03473,0.019897461
0.03450689131805583,0.028644716731204646,-0.015454823910789483,0.03280287,0.02243214,-0.0034600156,0.10142155,-0.023278823,0.9945711,0.9948436,0.0023732118,-0.10139378,0.0,-0.99972624,-0.023399483,0.7900865478515624,-0.15562310791015624,8.269572534179687,2.4713955,-0.21020558,24.199274,0.019897461
0.035705972483548114,0.0287779479718149,-0.014788667707738212,0.03280287,0.02243214,-0.0034600156,0.10142155,-0.023278823,0.9945711,0.9948436,0.0023732118,-0.10139378,0.0,-0.99972624,-0.023399483,0.8595183959960937,-0.1149216796875,8.262389929199218,2.4884977,-0.21020558,24.363674,0.019897461
0.0334410413931738,0.02904441045303541,-0.014788667707738212,0.03280287,0.02243214,-0.0034600156,0.10142155,-0.023278823,0.9945711,0.9948436,0.0023732118,-0.10139378,0.0,-0.99972624,-0.023399483,0.814028564453125,-0.1867477294921875,8.243236315917969,2.504695,-0.21020558,24.527693,0.019897461
0.03264165394951227,0.0287779479718149,-0.014122511504686942,0.03280287,0.02243214,-0.0034600156,0.10142155,-0.023278823,0.9945711,0.9948436,0.0023732118,-0.10139378,0.0,-0.99972624,-0.023399483,0.8667010009765624,-0.15562310791015624,8.312668164062499,2.52194,-0.21020558,24.693094,0.019897461
0.031975497746460996,0.028644716731204646,-0.016120980113840753,0.03280287,0.02243214,-0.0034600156,0.10142155,-0.023278823,0.9945711,0.9948436,0.0023732118,-0.10139378,0.0,-0.99972624,-0.023399483,0.7637503295898437,-0.16280571289062498,8.29351455078125,2.5371368,-0.21020558,24.858114,0.019897461
0.035972434964768624,0.030909647821578966,-0.013989280264076687,0.03280287,0.02243214,-0.0034600156,0.10142155,-0.023278823,0.9945711,0.9948436,0.0023732118,-0.10139378,0.0,-0.99972624,-0.023399483,0.8379705810546875,-0.1867477294921875,8.295908752441406,2.5538104,-0.21020558,25.023182,0.019897461
0.03077641658096871,0.0287779479718149,-0.014921898948348467,0.03280287,0.02243214,-0.0034600156,0.10142155,-0.023278823,0.9945711,0.9948436,0.0023732118,-0.10139378,0.0,-0.99972624,-0.023399483,0.8188169677734375,-0.1771709228515625,8.21690009765625,2.5705526,-0.21020558,25.19119,0.020446777
0.0334410413931738,0.029577335415476424,-0.017186830038722786,0.03280287,0.02243214,-0.0034600156,0.10142155,-0.023278823,0.9945711,0.9948436,0.0023732118,-0.10139378,0.0,-0.99972624,-0.023399483,0.8355763793945312,-0.24181436767578124,8.288726147460936,2.5872295,-0.21503183,25.35662,0.019958496
0.03144257278401998,0.03037672285913795,-0.01572128639200999,0.03280287,0.02243214,-0.0034600156,0.10142155,-0.023278823,0.9945711,0.9948436,0.0023732118,-0.10139378,0.0,-0.99972624,-0.023399483,0.8762778076171874,-0.17477672119140625,8.24802471923828,2.6047187,-0.21503183,25.521238,0.019958496
0.03130934154340973,0.032375191468291764,-0.016520673835671518,0.03280287,0.02243214,-0.0034600156,0.10142155,-0.023278823,0.9945711,0.9948436,0.0023732118,-0.10139378,0.0,-0.99972624,-0.023399483,0.7685387329101562,-0.2059013427734375,8.221688500976562,2.6200106,-0.21912874,25.68483,0.019897461
0.03410719759622506,0.028245023009373885,-0.014655436467127957,0.03280287,0.02243214,-0.0034600156,0.10142155,-0.023278823,0.9945711,0.9948436,0.0023732118,-0.10139378,0.0,-0.99972624,-0.023399483,0.9145850341796874,-0.18914193115234373,8.195352282714843,2.6382644,-0.21912874,25.848396,0.019958496
0.03370750387439431,0.028245023009373885,-0.013589586542245924,0.03280287,0.02243214,-0.0034600156,0.10142155,-0.023278823,0.9945711,0.9948436,0.0023732118,-0.10139378,0.0,-0.99972624,-0.023399483,0.7924807495117187,-0.21787235107421873,8.336610180664062,2.654081,-0.22347714,26.014782,0.019958496
0.0305099540997482,0.029444104174866172,-0.01505513018895872,0.03280287,0.02243214,-0.0034600156,0.10142155,-0.023278823,0.9945711,0.9948436,0.0023732118,-0.10139378,0.0,-0.99972624,-0.023399483,0.8810662109374999,-0.23223756103515625,8.329427575683594,2.671666,-0.22811225,26.181025,0.019958496
0.0334410413931738,0.03290811643073278,-0.01212404289553313,0.03280287,0.02243214,-0.0034600156,0.10142155,-0.023278823,0.9945711,0.9948436,0.0023732118,-0.10139378,0.0,-0.99972624,-0.023399483,0.842758984375,-0.11731588134765625,8.28633194580078,2.6884346,-0.22811225,26.345901,0.019897461
0.03130934154340973,0.028911179212425153,-0.015188361429568975,0.03280287,0.02243214,-0.0034600156,0.10142155,-0.023278823,0.9945711,0.9948436,0.0023732118,-0.10139378,0.0,-0.99972624,-0.023399483,0.814028564453125,-0.21787235107421873,8.243236315917969,2.7046318,-0.23244736,26.50992,0.019897461
0.031575804024630234,0.03384073511500456,-0.017586523760553547,0.03280287,0.02243214,-0.0034600156,0.10142155,-0.023278823,0.9945711,0.9948436,0.0023732118,-0.10139378,0.0,-0.99972624,-0.023399483,0.7805097412109374,-0.16759411621093748,8.283937744140625,2.720162,-0.23244736,26.67475,0.019897461
0.03064318534035846,0.029577335415476424,-0.014255742745297196,0.03280287,0.02243214,-0.0034600156,0.10142155,-0.023278823,0.9945711,0.9948436,0.0023732118,-0.10139378,0.0,-0.99972624,-0.023399483,0.8714894042968749,-0.14604630126953125,8.214505895996094,2.7374492,-0.23244736,26.837696,0.019836426
0.028378254249984136,0.027978560528153375,-0.01505513018895872,0.03280287,0.02243214,-0.0034600156,0.10142155,-0.023278823,0.9945711,0.9948436,0.0023732118,-0.10139378,0.0,-0.99972624,-0.023399483,0.8475473876953125,-0.1771709228515625,8.262389929199218,2.754365,-0.23244736,27.002602,0.019958496
0.03357427263378405,0.03037672285913795,-0.01372281778285618,0.03280287,0.02243214,-0.0034600156,0.10142155,-0.023278823,0.9945711,0.9948436,0.0023732118,-0.10139378,0.0,-0.99972624,-0.023399483,0.9074024291992187,-0.1292868896484375,8.259995727539062,2.7724752,-0.23244736,27.16746,0.019958496
0.031842266505850744,0.027312404325102103,-0.013056661579804908,0.03280287,0.02243214,-0.0034600156,0.10142155,-0.023278823,0.9945711,0.9948436,0.0023732118,-0.10139378,0.0,-0.99972624,-0.023399483,0.8355763793945312,-0.181959326171875,8.238447912597655,2.7891011,-0.23244736,27.331383,0.019897461
0.03144257278401998,0.031575804024630234,-0.01438897398590745,0.03280287,0.02243214,-0.0034600156,0.10142155,-0.023278823,0.9945711,0.9948436,0.0023732118,-0.10139378,0.0,-0.99972624,-0.023399483,0.7876923461914062,-0.2059013427734375,8.226476904296874,2.8047261,-0.2365317,27.494566,0.019836426
0.031975497746460996,0.02997702913730719,-0.014522205226517705,0.03280287,0.02243214,-0.0034600156,0.10142155,-0.023278823,0.9945711,0.9948436,0.0023732118,-0.10139378,0.0,-0.99972624,-0.023399483,0.8571241943359375,-0.13646949462890623,8.233659509277343,2.8218331,-0.2365317,27.658897,0.019958496
0.03357427263378405,0.02971056665608668,-0.011324655451871604,0.03280287,0.02243214,-0.0034600156,0.10142155,-0.023278823,0.9945711,0.9948436,0.0023732118,-0.10139378,0.0,-0.99972624,-0.023399483,0.8547299926757812,-0.1580173095703125,8.257601525878906,2.8395705,-0.2365317,27.83026,0.020751953
0.032241960227681506,0.031042879062189218,-0.016387442595061263,0.03280287,0.02243214,-0.0034600156,0.10142155,-0.023278823,0.9945711,0.9948436,0.0023732118,-0.10139378,0.0,-0.99972624,-0.023399483,0.852335791015625,-0.181959326171875,8.315062365722655,2.85653,-0.2365317,27.995708,0.019897461
0.031842266505850744,0.031042879062189218,-0.013589586542245924,0.03280287,0.02243214,-0.0034600156,0.10142155,-0.023278823,0.9945711,0.9948436,0.0023732118,-0.10139378,0.0,-0.99972624,-0.023399483,0.7852981445312499,-0.13168109130859373,8.271966735839843,2.8722034,-0.2365317,28.160805,0.019958496
0.03477335379927634,0.03011026037791744,-0.012656967857974145,0.03280287,0.02243214,-0.0034600156,0.10142155,-0.023278823,0.9945711,0.9948436,0.0023732118,-0.10139378,0.0,-0.99972624,-0.023399483,0.9002198242187499,-0.13407529296874998,8.279149340820313,2.8901155,-0.2365317,28.325539,0.019897461
0.03264165394951227,0.029444104174866172,-0.016520673835671518,0.03280287,0.02243214,-0.0034600156,0.10142155,-0.023278823,0.9945711,0.9948436,0.0023732118,-0.10139378,0.0,-0.99972624,-0.023399483,0.833182177734375,-0.2346317626953125,8.250418920898436,2.9067445,-0.2412146,28.490204,0.019958496
0.031842266505850744,0.03037672285913795,-0.015188361429568975,0.03280287,0.02243214,-0.0034600156,0.10142155,-0.023278823,0.9945711,0.9948436,0.0023732118,-0.10139378,0.0,-0.99972624,-0.023399483,0.8690952026367187,-0.2154781494140625,8.243236315917969,2.9240904,-0.24551523,28.654726,0.019958496
0.032774885190122525,0.031842266505850744,-0.015188361429568975,0.03280287,0.02243214,-0.0034600156,0.10142155,-0.023278823,0.9945711,0.9948436,0.0023732118,-0.10139378,0.0,-0.99972624,-0.023399483,0.8499415893554687,-0.2154781494140625,8.233659509277343,2.9411058,-0.249829,28.81956,0.020019531
0.0305099540997482,0.025180704475338038,-0.01705359879811253,0.03280287,0.02243214,-0.0034600156,0.10142155,-0.023278823,0.9945711,0.9948436,0.0023732118,-0.10139378,0.0,-0.99972624,-0.023399483,0.8283937744140625,-0.1580173095703125,8.25520732421875,2.9575887,-0.249829,28.983816,0.019897461
0.03290811643073278,0.028911179212425153,-0.013589586542245924,0.03280287,0.02243214,-0.0034600156,0.10142155,-0.023278823,0.9945711,0.9948436,0.0023732118,-0.10139378,0.0,-0.99972624,-0.023399483,0.8355763793945312,-0.21308394775390624,8.317456567382813,2.9742146,-0.25406882,29.149313,0.019897461
0.031176110302799476,0.028644716731204646,-0.01692036755750228,0.03280287,0.02243214,-0.0034600156,0.10142155,-0.023278823,0.9945711,0.9948436,0.0023732118,-0.10139378,0.0,-0.99972624,-0.023399483,0.7948749511718749,-0.21068974609375,8.250418920898436,2.9900305,-0.25826102,29.313475,0.019897461
0.031575804024630234,0.02744563556571236,-0.01945176112909711,0.03280287,0.02243214,-0.0034600156,0.10142155,-0.023278823,0.9945711,0.9948436,0.0023732118,-0.10139378,0.0,-0.99972624,-0.023399483,0.7996633544921875,-0.20350714111328125,8.224082702636718,3.0059905,-0.26232272,29.477615,0.019958496
0.031176110302799476,0.0305099540997482,-0.015188361429568975,0.03280287,0.02243214,-0.0034600156,0.10142155,-0.023278823,0.9945711,0.9948436,0.0023732118,-0.10139378,0.0,-0.99972624,-0.023399483,0.814028564453125,-0.24899697265624998,8.245630517578125,3.0222373,-0.26729232,29.642185,0.019958496
0.031176110302799476,0.02851148549059439,-0.01732006127933304,0.03280287,0.02243214,-0.0034600156,0.10142155,-0.023278823,0.9945711,0.9948436,0.0023732118,-0.10139378,0.0,-0.99972624,-0.023399483,0.7900865478515624,-0.1580173095703125,8.204929089355469,3.037958,-0.26729232,29.805443,0.019897461
0.0369050536490404,0.0305099540997482,-0.017453292519943295,0.03280287,0.02243214,-0.0034600156,0.10142155,-0.023278823,0.9945711,0.9948436,0.0023732118,-0.10139378,0.0,-0.99972624,-0.023399483,0.8810662109374999,-0.20350714111328125,8.200140686035155,3.0554888,-0.2713416,29.968605,0.019897461
0.033307810152563545,0.027045941843881597,-0.017852986241774057,0.03280287,0.02243214,-0.0034600156,0.10142155,-0.023278823,0.9945711,0.9948436,0.0023732118,-0.10139378,0.0,-0.99972624,-0.023399483,0.8355763793945312,-0.17477672119140625,8.214505895996094,3.0721147,-0.2713416,30.132053,0.019897461
0.031176110302799476,0.031042879062189218,-0.017719755001163805,0.03280287,0.02243214,-0.0034600156,0.10142155,-0.023278823,0.9945711,0.9948436,0.0023732118,-0.10139378,0.0,-0.99972624,-0.023399483,0.8738836059570312,-0.19393033447265623,8.190563879394531,3.0899827,-0.2713416,30.299524,0.020446777
0.02997702913730719,0.0287779479718149,-0.015454823910789483,0.03280287,0.02243214,-0.0034600156,0.10142155,-0.023278823,0.9945711,0.9948436,0.0023732118,-0.10139378,0.0,-0.99972624,-0.023399483,0.8810662109374999,-0.19632453613281248,8.262389929199218,3.1075675,-0.2713416,30.46443,0.019958496
0.03384073511500456,0.028644716731204646,-0.013856049023466432,0.03280287,0.02243214,-0.0034600156,0.10142155,-0.023278823,0.9945711,0.9948436,0.0023732118,-0.10139378,0.0,-0.99972624,-0.023399483,0.82360537109375,-0.16280571289062498,8.307879760742187,3.1239552,-0.2713416,30.629736,0.019897461
0.03290811643073278,0.031176110302799476,-0.015854517632620246,0.03280287,0.02243214,-0.0034600156,0.10142155,-0.023278823,0.9945711,0.9948436,0.0023732118,-0.10139378,0.0,-0.99972624,-0.023399483,0.7637503295898437,-0.1484405029296875,8.226476904296874,3.139152,-0.2713416,30.793423,0.019897461
0.03264165394951227,0.026513016881440577,-0.013589586542245924,0.03280287,0.02243214,-0.0034600156,0.10142155,-0.023278823,0.9945711,0.9948436,0.0023732118,-0.10139378,0.0,-0.99972624,-0.023399483,0.8188169677734375,-0.16280571289062498,8.295908752441406,3.1554444,-0.2713416,30.95849,0.019897461
0.03770444109270193,0.030909647821578966,-0.017186830038722786,0.03280287,0.02243214,-0.0034600156,0.10142155,-0.023278823,0.9945711,0.9948436,0.0023732118,-0.10139378,0.0,-0.99972624,-0.023399483,0.8810662109374999,-0.105344873046875,8.29351455078125,3.1730828,-0.2713416,31.124523,0.020019531
0.03437366007744557,0.032108728987071254,-0.01958499236970736,0.03280287,0.02243214,-0.0034600156,0.10142155,-0.023278823,0.9945711,0.9948436,0.0023732118,-0.10139378,0.0,-0.99972624,-0.023399483,0.7829039428710937,-0.16998831787109375,8.269572534179687,3.1886606,-0.2713416,31.289066,0.019897461
0.033041347671343035,0.029310872934255914,-0.01372281778285618,0.03280287,0.02243214,-0.0034600156,0.10142155,-0.023278823,0.9945711,0.9948436,0.0023732118,-0.10139378,0.0,-0.99972624,-0.023399483,0.7996633544921875,-0.19393033447265623,8.164227661132813,3.2046206,-0.2713416,31.452011,0.019958496
0.03530627876171736,0.03037672285913795,-0.013056661579804908,0.03280287,0.02243214,-0.0034600156,0.10142155,-0.023278823,0.9945711,0.9948436,0.0023732118,-0.10139378,0.0,-0.99972624,-0.023399483,0.8978256225585937,-0.1197100830078125,8.21690009765625,3.222485,-0.2713416,31.615507,0.019897461
0.03130934154340973,0.031176110302799476,-0.015188361429568975,0.03280287,0.02243214,-0.0034600156,0.10142155,-0.023278823,0.9945711,0.9948436,0.0023732118,-0.10139378,0.0,-0.99972624,-0.023399483,0.93852705078125,-0.24899697265624998,8.271966735839843,3.241102,-0.2762808,31.779593,0.019836426
0.032508422708902016,0.032241960227681506,-0.015188361429568975,0.03280287,0.02243214,-0.0034600156,0.10142155,-0.023278823,0.9945711,0.9948436,0.0023732118,-0.10139378,0.0,-0.99972624,-0.023399483,0.8188169677734375,-0.11013327636718749,8.24802471923828,3.2574444,-0.2762808,31.94421,0.019958496
0.03130934154340973,0.026513016881440577,-0.015987748873230498,0.03280287,0.02243214,-0.0034600156,0.10142155,-0.023278823,0.9945711,0.9948436,0.0023732118,-0.10139378,0.0,-0.99972624,-0.023399483,0.8188169677734375,-0.21787235107421873,8.269572534179687,3.2737367,-0.2806159,32.108753,0.019897461
0.032375191468291764,0.031042879062189218,-0.01505513018895872,0.03280287,0.02243214,-0.0034600156,0.10142155,-0.023278823,0.9945711,0.9948436,0.0023732118,-0.10139378,0.0,-0.99972624,-0.023399483,0.8116343627929687,-0.143652099609375,8.327033374023436,3.2899358,-0.2806159,32.27495,0.019958496
0.032241960227681506,0.033307810152563545,-0.014255742745297196,0.03280287,0.02243214,-0.0034600156,0.10142155,-0.023278823,0.9945711,0.9948436,0.0023732118,-0.10139378,0.0,-0.99972624,-0.023399483,0.7637503295898437,-0.19393033447265623,8.315062365722655,3.305179,-0.2806159,32.440903,0.019958496
0.032375191468291764,0.03170903526524049,-0.01705359879811253,0.03280287,0.02243214,-0.0034600156,0.10142155,-0.023278823,0.9945711,0.9948436,0.0023732118,-0.10139378,0.0,-0.99972624,-0.023399483,0.8906430175781249,-0.22744915771484372,8.24802471923828,3.3229551,-0.28515545,32.605522,0.019958496
0.028245023009373885,0.030909647821578966,-0.013589586542245924,0.03280287,0.02243214,-0.0034600156,0.10142155,-0.023278823,0.9945711,0.9948436,0.0023732118,-0.10139378,0.0,-0.99972624,-0.023399483,0.833182177734375,-0.19153613281249998,8.276755139160155,3.3396351,-0.28515545,32.771217,0.020019531
0.03317457891195329,0.028644716731204646,-0.015454823910789483,0.03280287,0.02243214,-0.0034600156,0.10142155,-0.023278823,0.9945711,0.9948436,0.0023732118,-0.10139378,0.0,-0.99972624,-0.023399483,0.8738836059570312,-0.14125789794921875,8.303091357421874,3.35745,-0.28515545,32.940483,0.020385742
0.028911179212425153,0.028378254249984136,-0.015188361429568975,0.03280287,0.02243214,-0.0034600156,0.10142155,-0.023278823,0.9945711,0.9948436,0.0023732118,-0.10139378,0.0,-0.99972624,-0.023399483,0.8571241943359375,-0.1292868896484375,8.243236315917969,3.374557,-0.28515545,33.105007,0.019958496
0.03357427263378405,0.031575804024630234,-0.016520673835671518,0.03280287,0.02243214,-0.0034600156,0.10142155,-0.023278823,0.9945711,0.9948436,0.0023732118,-0.10139378,0.0,-0.99972624,-0.023399483,0.9026140258789062,-0.23223756103515625,8.224082702636718,3.392572,-0.28979057,33.269146,0.019958496
0.033041347671343035,0.028644716731204646,-0.014921898948348467,0.03280287,0.02243214,-0.0034600156,0.10142155,-0.023278823,0.9945711,0.9948436,0.0023732118,-0.10139378,0.0,-0.99972624,-0.023399483,0.8547299926757812,-0.18914193115234373,8.288726147460936,3.409631,-0.28979057,33.434578,0.019958496
0.03170903526524049,0.02971056665608668,-0.015588055151399738,0.03280287,0.02243214,-0.0034600156,0.10142155,-0.023278823,0.9945711,0.9948436,0.0023732118,-0.10139378,0.0,-0.99972624,-0.023399483,0.8834604125976562,-0.16759411621093748,8.204929089355469,3.4272635,-0.28979057,33.598335,0.019958496
0.03144257278401998,0.03170903526524049,-0.01705359879811253,0.03280287,0.02243214,-0.0034600156,0.10142155,-0.023278823,0.9945711,0.9948436,0.0023732118,-0.10139378,0.0,-0.99972624,-0.023399483,0.8212111694335937,-0.15083470458984374,8.303091357421874,3.4436035,-0.28979057,33.763546,0.019897461
0.028911179212425153,0.029843797896696934,-0.01705359879811253,0.03280287,0.02243214,-0.0034600156,0.10142155,-0.023278823,0.9945711,0.9948436,0.0023732118,-0.10139378,0.0,-0.99972624,-0.023399483,0.9002198242187499,-0.21068974609375,8.238447912597655,3.4614606,-0.2939699,33.926968,0.019836426
0.03290811643073278,0.032241960227681506,-0.01345635530163567,0.03280287,0.02243214,-0.0034600156,0.10142155,-0.023278823,0.9945711,0.9948436,0.0023732118,-0.10139378,0.0,-0.99972624,-0.023399483,0.8020575561523438,-0.1484405029296875,8.29351455078125,3.4774196,-0.2939699,34.091988,0.019897461
0.032108728987071254,0.03384073511500456,-0.016254211354451008,0.03280287,0.02243214,-0.0034600156,0.10142155,-0.023278823,0.9945711,0.9948436,0.0023732118,-0.10139378,0.0,-0.99972624,-0.023399483,0.8451531860351562,-0.20350714111328125,8.250418920898436,3.494236,-0.29801917,34.25615,0.019897461
0.028245023009373885,0.0302434916185277,-0.013856049023466432,0.03280287,0.02243214,-0.0034600156,0.10142155,-0.023278823,0.9945711,0.9948436,0.0023732118,-0.10139378,0.0,-0.99972624,-0.023399483,0.8738836059570312,-0.22744915771484372,8.288726147460936,3.5117307,-0.3025726,34.422085,0.020019531
0.032508422708902016,0.032375191468291764,-0.014655436467127957,0.03280287,0.02243214,-0.0034600156,0.10142155,-0.023278823,0.9945711,0.9948436,0.0023732118,-0.10139378,0.0,-0.99972624,-0.023399483,0.8858546142578124,-0.1771709228515625,8.295908752441406,3.529357,-0.3025726,34.58715,0.019897461
0.03077641658096871,0.028245023009373885,-0.01692036755750228,0.03280287,0.02243214,-0.0034600156,0.10142155,-0.023278823,0.9945711,0.9948436,0.0023732118,-0.10139378,0.0,-0.99972624,-0.023399483,0.8954314208984374,-0.21308394775390624,8.281543542480469,3.5471737,-0.30681244,34.751934,0.019897461
0.02997702913730719,0.0302434916185277,-0.01705359879811253,0.03280287,0.02243214,-0.0034600156,0.10142155,-0.023278823,0.9945711,0.9948436,0.0023732118,-0.10139378,0.0,-0.99972624,-0.023399483,0.8738836059570312,-0.18914193115234373,8.341398583984375,3.5646152,-0.30681244,34.918415,0.019958496
0.03357427263378405,0.029310872934255914,-0.01505513018895872,0.03280287,0.02243214,-0.0034600156,0.10142155,-0.023278823,0.9945711,0.9948436,0.0023732118,-0.10139378,0.0,-0.99972624,-0.023399483,0.7972691528320313,-0.1867477294921875,8.125920434570313,3.580479,-0.30681244,35.0801,0.019897461
0.02904441045303541,0.033041347671343035,-0.01705359879811253,0.03280287,0.02243214,-0.0034600156,0.10142155,-0.023278823,0.9945711,0.9948436,0.0023732118,-0.10139378,0.0,-0.99972624,-0.023399483,0.8020575561523438,-0.18914193115234373,8.245630517578125,3.5965357,-0.30681244,35.245174,0.020019531
0.03130934154340973,0.02904441045303541,-0.01732006127933304,0.03280287,0.02243214,-0.0034600156,0.10142155,-0.023278823,0.9945711,0.9948436,0.0023732118,-0.10139378,0.0,-0.99972624,-0.023399483,0.7924807495117187,-0.13407529296874998,8.279149340820313,3.6123524,-0.30681244,35.410416,0.019958496
0.02904441045303541,0.03144257278401998,-0.015854517632620246,0.03280287,0.02243214,-0.0034600156,0.10142155,-0.023278823,0.9945711,0.9948436,0.0023732118,-0.10139378,0.0,-0.99972624,-0.023399483,0.7924807495117187,-0.201112939453125,8.283937744140625,3.6286044,-0.3109368,35.5803,0.020507812
0.030909647821578966,0.0305099540997482,-0.014522205226517705,0.03280287,0.02243214,-0.0034600156,0.10142155,-0.023278823,0.9945711,0.9948436,0.0023732118,-0.10139378,0.0,-0.99972624,-0.023399483,0.9026140258789062,-0.18435352783203124,8.25520732421875,3.6466193,-0.3109368,35.74506,0.019958496
0.032241960227681506,0.03317457891195329,-0.011990811654922875,0.03280287,0.02243214,-0.0034600156,0.10142155,-0.023278823,0.9945711,0.9948436,0.0023732118,-0.10139378,0.0,-0.99972624,-0.023399483,0.8188169677734375,-0.1580173095703125,8.21690009765625,3.6629117,-0.3109368,35.908554,0.019897461
0.02851148549059439,0.03170903526524049,-0.017719755001163805,0.03280287,0.02243214,-0.0034600156,0.10142155,-0.023278823,0.9945711,0.9948436,0.0023732118,-0.10139378,0.0,-0.99972624,-0.023399483,0.8930372192382812,-0.21068974609375,8.243236315917969,3.6807353,-0.31514186,36.07308,0.019958496
0.03464012255866608,0.0305099540997482,-0.011591117933092112,0.03280287,0.02243214,-0.0034600156,0.10142155,-0.023278823,0.9945711,0.9948436,0.0023732118,-0.10139378,0.0,-0.99972624,-0.023399483,0.8906430175781249,-0.18435352783203124,8.2360537109375,3.698457,-0.31514186,36.236954,0.019897461
0.032774885190122525,0.029444104174866172,-0.018385911204215073,0.03280287,0.02243214,-0.0034600156,0.10142155,-0.023278823,0.9945711,0.9948436,0.0023732118,-0.10139378,0.0,-0.99972624,-0.023399483,0.82360537109375,-0.181959326171875,8.267178332519531,3.7148447,-0.31514186,36.40145,0.019897461
0.032375191468291764,0.029843797896696934,-0.012656967857974145,0.03280287,0.02243214,-0.0034600156,0.10142155,-0.023278823,0.9945711,0.9948436,0.0023732118,-0.10139378,0.0,-0.99972624,-0.023399483,0.8714894042968749,-0.1580173095703125,8.226476904296874,3.7322383,-0.31514186,36.56564,0.019958496
0.03077641658096871,0.03011026037791744,-0.015987748873230498,0.03280287,0.02243214,-0.0034600156,0.10142155,-0.023278823,0.9945711,0.9948436,0.0023732118,-0.10139378,0.0,-0.99972624,-0.023399483,0.8714894042968749,-0.13407529296874998,8.264784130859374,3.749632,-0.31514186,36.73059,0.019958496
0.031575804024630234,0.031575804024630234,-0.016653905076281773,0.03280287,0.02243214,-0.0034600156,0.10142155,-0.023278823,0.9945711,0.9948436,0.0023732118,-0.10139378,0.0,-0.99972624,-0.023399483,0.852335791015625,-0.22266075439453123,8.28633194580078,3.7666433,-0.31958583,36.895973,0.019958496
0.03424042883683532,0.03037672285913795,-0.011591117933092112,0.03280287,0.02243214,-0.0034600156,0.10142155,-0.023278823,0.9945711,0.9948436,0.0023732118,-0.10139378,0.0,-0.99972624,-0.023399483,0.86191259765625,-0.1867477294921875,8.288726147460936,3.7838457,-0.31958583,37.061405,0.019958496
0.03477335379927634,0.026646248122050836,-0.014522205226517705,0.03280287,0.02243214,-0.0034600156,0.10142155,-0.023278823,0.9945711,0.9948436,0.0023732118,-0.10139378,0.0,-0.99972624,-0.023399483,0.8379705810546875,-0.16998831787109375,8.238447912597655,3.8005702,-0.31958583,37.225834,0.019958496
0.033041347671343035,0.029843797896696934,-0.013856049023466432,0.03280287,0.02243214,-0.0034600156,0.10142155,-0.023278823,0.9945711,0.9948436,0.0023732118,-0.10139378,0.0,-0.99972624,-0.023399483,0.8595183959960937,-0.18435352783203124,8.20971749267578,3.8176725,-0.31958583,37.389187,0.019897461
0.031975497746460996,0.031575804024630234,-0.013589586542245924,0.03280287,0.02243214,-0.0034600156,0.10142155,-0.023278823,0.9945711,0.9948436,0.0023732118,-0.10139378,0.0,-0.99972624,-0.023399483,0.7972691528320313,-0.21068974609375,8.317456567382813,3.8335361,-0.32377803,37.554684,0.019897461
0.03384073511500456,0.029577335415476424,-0.014788667707738212,0.03280287,0.02243214,-0.0034600156,0.10142155,-0.023278823,0.9945711,0.9948436,0.0023732118,-0.10139378,0.0,-0.99972624,-0.023399483,0.9145850341796874,-0.23702596435546874,8.259995727539062,3.8518457,-0.3285232,37.720043,0.020019531
0.03170903526524049,0.03264165394951227,-0.016520673835671518,0.03280287,0.02243214,-0.0034600156,0.10142155,-0.023278823,0.9945711,0.9948436,0.0023732118,-0.10139378,0.0,-0.99972624,-0.023399483,0.8451531860351562,-0.25139117431640623,8.245630517578125,3.8687136,-0.3335406,37.884613,0.019958496
0.03170903526524049,0.02997702913730719,-0.014788667707738212,0.03280287,0.02243214,-0.0034600156,0.10142155,-0.023278823,0.9945711,0.9948436,0.0023732118,-0.10139378,0.0,-0.99972624,-0.023399483,0.8690952026367187,-0.18914193115234373,8.219294299316406,3.8859534,-0.3335406,38.047653,0.019836426
0.03490658503988659,0.029843797896696934,-0.02078407353519965,0.03280287,0.02243214,-0.0034600156,0.10142155,-0.023278823,0.9945711,0.9948436,0.0023732118,-0.10139378,0.0,-0.99972624,-0.023399483,0.7900865478515624,-0.18914193115234373,8.329427575683594,3.90206,-0.3335406,38.217453,0.020385742
0.030909647821578966,0.027978560528153375,-0.014522205226517705,0.03280287,0.02243214,-0.0034600156,0.10142155,-0.023278823,0.9945711,0.9948436,0.0023732118,-0.10139378,0.0,-0.99972624,-0.023399483,0.8116343627929687,-0.16041151123046873,8.176198669433592,3.91816,-0.3335406,38.37964,0.019836426
0.03130934154340973,0.03064318534035846,-0.01372281778285618,0.03280287,0.02243214,-0.0034600156,0.10142155,-0.023278823,0.9945711,0.9948436,0.0023732118,-0.10139378,0.0,-0.99972624,-0.023399483,0.8379705810546875,-0.22744915771484372,8.319850769042969,3.9349358,-0.33809403,38.5462,0.020019531
0.03424042883683532,0.02997702913730719,-0.013989280264076687,0.03280287,0.02243214,-0.0034600156,0.10142155,-0.023278823,0.9945711,0.9948436,0.0023732118,-0.10139378,0.0,-0.99972624,-0.023399483,0.7924807495117187,-0.21787235107421873,8.317456567382813,3.950704,-0.34242913,38.711697,0.019897461
0.03384073511500456,0.029444104174866172,-0.018385911204215073,0.03280287,0.02243214,-0.0034600156,0.10142155,-0.023278823,0.9945711,0.9948436,0.0023732118,-0.10139378,0.0,-0.99972624,-0.023399483,0.8882488159179687,-0.22505495605468748,8.29351455078125,3.9684322,-0.34692088,38.877224,0.019958496
0.03464012255866608,0.03011026037791744,-0.016787136316892024,0.03280287,0.02243214,-0.0034600156,0.10142155,-0.023278823,0.9945711,0.9948436,0.0023732118,-0.10139378,0.0,-0.99972624,-0.023399483,0.8499415893554687,-0.22266075439453123,8.224082702636718,3.9853957,-0.35136485,39.041363,0.019958496
0.032108728987071254,0.02424808579106626,-0.015454823910789483,0.03280287,0.02243214,-0.0034600156,0.10142155,-0.023278823,0.9945711,0.9948436,0.0023732118,-0.10139378,0.0,-0.99972624,-0.023399483,0.8475473876953125,-0.09576806640624999,8.300697155761718,4.0022597,-0.35136485,39.206524,0.019897461
0.031975497746460996,0.031042879062189218,-0.014255742745297196,0.03280287,0.02243214,-0.0034600156,0.10142155,-0.023278823,0.9945711,0.9948436,0.0023732118,-0.10139378,0.0,-0.99972624,-0.023399483,0.8164227661132812,-0.21308394775390624,8.291120349121094,4.0185046,-0.35560468,39.371494,0.019897461
0.029177641693645662,0.030909647821578966,-0.01692036755750228,0.03280287,0.02243214,-0.0034600156,0.10142155,-0.023278823,0.9945711,0.9948436,0.0023732118,-0.10139378,0.0,-0.99972624,-0.023399483,0.8930372192382812,-0.181959326171875,8.276755139160155,4.036274,-0.35560468,39.536182,0.019897461
0.031842266505850744,0.029577335415476424,-0.016520673835671518,0.03280287,0.02243214,-0.0034600156,0.10142155,-0.023278823,0.9945711,0.9948436,0.0023732118,-0.10139378,0.0,-0.99972624,-0.023399483,0.8499415893554687,-0.17956512451171874,8.300697155761718,4.0531855,-0.35560468,39.701344,0.019897461
0.032108728987071254,0.031842266505850744,-0.013056661579804908,0.03280287,0.02243214,-0.0034600156,0.10142155,-0.023278823,0.9945711,0.9948436,0.0023732118,-0.10139378,0.0,-0.99972624,-0.023399483,0.8738836059570312,-0.143652099609375,8.271966735839843,4.0705204,-0.35560468,39.86543,0.019836426
0.03144257278401998,0.0305099540997482,-0.014122511504686942,0.03280287,0.02243214,-0.0034600156,0.10142155,-0.023278823,0.9945711,0.9948436,0.0023732118,-0.10139378,0.0,-0.99972624,-0.023399483,0.8379705810546875,-0.12449848632812499,8.29351455078125,4.087194,-0.35560468,40.03045,0.019897461
0.03264165394951227,0.03464012255866608,-0.016520673835671518,0.03280287,0.02243214,-0.0034600156,0.10142155,-0.023278823,0.9945711,0.9948436,0.0023732118,-0.10139378,0.0,-0.99972624,-0.023399483,0.8547299926757812,-0.21308394775390624,8.28633194580078,4.104201,-0.3598445,40.195328,0.019897461
0.031975497746460996,0.032241960227681506,-0.016387442595061263,0.03280287,0.02243214,-0.0034600156,0.10142155,-0.023278823,0.9945711,0.9948436,0.0023732118,-0.10139378,0.0,-0.99972624,-0.023399483,0.8403647827148437,-0.1484405029296875,8.231265307617187,4.1208706,-0.3598445,40.35861,0.019836426
0.03384073511500456,0.030909647821578966,-0.01692036755750228,0.03280287,0.02243214,-0.0034600156,0.10142155,-0.023278823,0.9945711,0.9948436,0.0023732118,-0.10139378,0.0,-0.99972624,-0.023399483,0.8667010009765624,-0.19632453613281248,8.279149340820313,4.138116,-0.3598445,40.523342,0.019897461
0.02997702913730719,0.03170903526524049,-0.01532159267017923,0.03280287,0.02243214,-0.0034600156,0.10142155,-0.023278823,0.9945711,0.9948436,0.0023732118,-0.10139378,0.0,-0.99972624,-0.023399483,0.8379705810546875,-0.18914193115234373,8.238447912597655,4.1551476,-0.3598445,40.690784,0.020324707
0.032241960227681506,0.028644716731204646,-0.014655436467127957,0.03280287,0.02243214,-0.0034600156,0.10142155,-0.023278823,0.9945711,0.9948436,0.0023732118,-0.10139378,0.0,-0.99972624,-0.023399483,0.7637503295898437,-0.18914193115234373,8.243236315917969,4.1703444,-0.3598445,40.854805,0.019897461
0.031176110302799476,0.029577335415476424,-0.015454823910789483,0.03280287,0.02243214,-0.0034600156,0.10142155,-0.023278823,0.9945711,0.9948436,0.0023732118,-0.10139378,0.0,-0.99972624,-0.023399483,0.7541735229492187,-0.27293898925781246,8.343792785644531,4.1853504,-0.3652753,41.020824,0.019897461
0.029310872934255914,0.03037672285913795,-0.013856049023466432,0.03280287,0.02243214,-0.0034600156,0.10142155,-0.023278823,0.9945711,0.9948436,0.0023732118,-0.10139378,0.0,-0.99972624,-0.023399483,0.8810662109374999,-0.12210428466796874,8.305485559082031,4.2028275,-0.3652753,41.185577,0.019836426
0.032241960227681506,0.029177641693645662,-0.01052526800821008,0.03280287,0.02243214,-0.0034600156,0.10142155,-0.023278823,0.9945711,0.9948436,0.0023732118,-0.10139378,0.0,-0.99972624,-0.023399483,0.8020575561523438,-0.17956512451171874,8.279149340820313,4.2187376,-0.3652753,41.349808,0.019836426
0.029310872934255914,0.03130934154340973,-0.014522205226517705,0.03280287,0.02243214,-0.0034600156,0.10142155,-0.023278823,0.9945711,0.9948436,0.0023732118,-0.10139378,0.0,-0.99972624,-0.023399483,0.8738836059570312,-0.16280571289062498,8.303091357421874,4.2360725,-0.3652753,41.51451,0.019836426
0.0305099540997482,0.02971056665608668,-0.013589586542245924,0.03280287,0.02243214,-0.0034600156,0.10142155,-0.023278823,0.9945711,0.9948436,0.0023732118,-0.10139378,0.0,-0.99972624,-0.023399483,0.8259995727539062,-0.21787235107421873,8.197746484375,4.2524576,-0.3695971,41.677124,0.019836426
0.03077641658096871,0.029177641693645662,-0.012656967857974145,0.03280287,0.02243214,-0.0034600156,0.10142155,-0.023278823,0.9945711,0.9948436,0.0023732118,-0.10139378,0.0,-0.99972624,-0.023399483,0.8164227661132812,-0.201112939453125,8.298302954101562,4.268802,-0.37362328,41.84325,0.020019531
0.03144257278401998,0.02624655440022007,-0.015454823910789483,0.03280287,0.02243214,-0.0034600156,0.10142155,-0.023278823,0.9945711,0.9948436,0.0023732118,-0.10139378,0.0,-0.99972624,-0.023399483,0.7900865478515624,-0.16998831787109375,8.188169677734374,4.2848606,-0.37362328,42.009674,0.020324707
0.03170903526524049,0.02997702913730719,-0.016787136316892024,0.03280287,0.02243214,-0.0034600156,0.10142155,-0.023278823,0.9945711,0.9948436,0.0023732118,-0.10139378,0.0,-0.99972624,-0.023399483,0.8475473876953125,-0.19393033447265623,8.204929089355469,4.302087,-0.37362328,42.176437,0.020324707
0.03144257278401998,0.031975497746460996,-0.014921898948348467,0.03280287,0.02243214,-0.0034600156,0.10142155,-0.023278823,0.9945711,0.9948436,0.0023732118,-0.10139378,0.0,-0.99972624,-0.023399483,0.8595183959960937,-0.16519991455078123,8.291120349121094,4.3197136,-0.37362328,42.34647,0.020507812
0.0287779479718149,0.029843797896696934,-0.014788667707738212,0.03280287,0.02243214,-0.0034600156,0.10142155,-0.023278823,0.9945711,0.9948436,0.0023732118,-0.10139378,0.0,-0.99972624,-0.023399483,0.8858546142578124,-0.16998831787109375,8.243236315917969,4.3378263,-0.37362328,42.51502,0.020446777
0.032108728987071254,0.029843797896696934,-0.01505513018895872,0.03280287,0.02243214,-0.0034600156,0.10142155,-0.023278823,0.9945711,0.9948436,0.0023732118,-0.10139378,0.0,-0.99972624,-0.023399483,0.8307879760742187,-0.229843359375,8.317456567382813,4.3547626,-0.3783088,42.684574,0.020385742
0.03384073511500456,0.032508422708902016,-0.01572128639200999,0.03280287,0.02243214,-0.0034600156,0.10142155,-0.023278823,0.9945711,0.9948436,0.0023732118,-0.10139378,0.0,-0.99972624,-0.023399483,0.8164227661132812,-0.22744915771484372,8.243236315917969,4.3710074,-0.38283446,42.848595,0.019897461
0.03064318534035846,0.0305099540997482,-0.018119448722994567,0.03280287,0.02243214,-0.0034600156,0.10142155,-0.023278823,0.9945711,0.9948436,0.0023732118,-0.10139378,0.0,-0.99972624,-0.023399483,0.7924807495117187,-0.21068974609375,8.195352282714843,4.386776,-0.38702667,43.01166,0.019897461
0.032508422708902016,0.032508422708902016,-0.01345635530163567,0.03280287,0.02243214,-0.0034600156,0.10142155,-0.023278823,0.9945711,0.9948436,0.0023732118,-0.10139378,0.0,-0.99972624,-0.023399483,0.8379705810546875,-0.14604630126953125,8.233659509277343,4.4035006,-0.38702667,43.175995,0.019958496
0.0287779479718149,0.0302434916185277,-0.01345635530163567,0.03280287,0.02243214,-0.0034600156,0.10142155,-0.023278823,0.9945711,0.9948436,0.0023732118,-0.10139378,0.0,-0.99972624,-0.023399483,0.8068459594726562,-0.2705447875976562,8.190563879394531,4.4199486,-0.39254192,43.342964,0.020385742
0.03037672285913795,0.03011026037791744,-0.012523736617363892,0.03280287,0.02243214,-0.0034600156,0.10142155,-0.023278823,0.9945711,0.9948436,0.0023732118,-0.10139378,0.0,-0.99972624,-0.023399483,0.8978256225585937,-0.24181436767578124,8.269572534179687,4.4378676,-0.39736816,43.50801,0.019958496
0.031842266505850744,0.0302434916185277,-0.014655436467127957,0.03280287,0.02243214,-0.0034600156,0.10142155,-0.023278823,0.9945711,0.9948436,0.0023732118,-0.10139378,0.0,-0.99972624,-0.023399483,0.8667010009765624,-0.22266075439453123,8.2743609375,4.455113,-0.40179855,43.67265,0.019897461
0.03077641658096871,0.027578866806322613,-0.01505513018895872,0.03280287,0.02243214,-0.0034600156,0.10142155,-0.023278823,0.9945711,0.9948436,0.0023732118,-0.10139378,0.0,-0.99972624,-0.023399483,0.852335791015625,-0.20350714111328125,8.269572534179687,4.472072,-0.40584782,43.837193,0.019897461
0.031842266505850744,0.03037672285913795,-0.016787136316892024,0.03280287,0.02243214,-0.0034600156,0.10142155,-0.023278823,0.9945711,0.9948436,0.0023732118,-0.10139378,0.0,-0.99972624,-0.023399483,0.7829039428710937,-0.15322890625,8.317456567382813,4.487602,-0.40584782,44.002182,0.019836426
0.029177641693645662,0.0305099540997482,-0.018252679963604822,0.03280287,0.02243214,-0.0034600156,0.10142155,-0.023278823,0.9945711,0.9948436,0.0023732118,-0.10139378,0.0,-0.99972624,-0.023399483,0.7613561279296874,-0.16280571289062498,8.200140686035155,4.5027046,-0.40584782,44.164845,0.019836426
0.031975497746460996,0.029843797896696934,-0.013056661579804908,0.03280287,0.02243214,-0.0034600156,0.10142155,-0.023278823,0.9945711,0.9948436,0.0023732118,-0.10139378,0.0,-0.99972624,-0.023399483,0.7829039428710937,-0.22505495605468748,8.312668164062499,4.5182824,-0.41032583,44.330246,0.019897461
0.03130934154340973,0.02744563556571236,-0.018652373685435583,0.03280287,0.02243214,-0.0034600156,0.10142155,-0.023278823,0.9945711,0.9948436,0.0023732118,-0.10139378,0.0,-0.99972624,-0.023399483,0.7733271362304687,-0.229843359375,8.291120349121094,4.5337167,-0.41491315,44.495724,0.019958496
0.03477335379927634,0.031042879062189218,-0.012523736617363892,0.03280287,0.02243214,-0.0034600156,0.10142155,-0.023278823,0.9945711,0.9948436,0.0023732118,-0.10139378,0.0,-0.99972624,-0.023399483,0.948103857421875,-0.22744915771484372,8.233659509277343,4.5525813,-0.4194388,44.659554,0.019897461
0.03424042883683532,0.03290811643073278,-0.015454823910789483,0.03280287,0.02243214,-0.0034600156,0.10142155,-0.023278823,0.9945711,0.9948436,0.0023732118,-0.10139378,0.0,-0.99972624,-0.023399483,0.8738836059570312,-0.17956512451171874,8.259995727539062,4.5699162,-0.4194388,44.823402,0.019836426
0.032108728987071254,0.02904441045303541,-0.02011791733214838,0.03280287,0.02243214,-0.0034600156,0.10142155,-0.023278823,0.9945711,0.9948436,0.0023732118,-0.10139378,0.0,-0.99972624,-0.023399483,0.8762778076171874,-0.18435352783203124,8.188169677734374,4.587352,-0.4194388,44.986324,0.019897461
0.03357427263378405,0.028245023009373885,-0.01572128639200999,0.03280287,0.02243214,-0.0034600156,0.10142155,-0.023278823,0.9945711,0.9948436,0.0023732118,-0.10139378,0.0,-0.99972624,-0.023399483,0.8595183959960937,-0.26815058593749996,8.317456567382813,4.6045065,-0.42479068,45.15233,0.019958496
0.03064318534035846,0.029310872934255914,-0.013989280264076687,0.03280287,0.02243214,-0.0034600156,0.10142155,-0.023278823,0.9945711,0.9948436,0.0023732118,-0.10139378,0.0,-0.99972624,-0.023399483,0.7733271362304687,-0.258573779296875,8.221688500976562,4.6198936,-0.42993563,45.315918,0.019897461
0.0334410413931738,0.032774885190122525,-0.018119448722994567,0.03280287,0.02243214,-0.0034600156,0.10142155,-0.023278823,0.9945711,0.9948436,0.0023732118,-0.10139378,0.0,-0.99972624,-0.023399483,0.8643067993164062,-0.17477672119140625,8.29351455078125,4.637038,-0.42993563,45.48043,0.019836426
0.03357427263378405,0.0305099540997482,-0.014122511504686942,0.03280287,0.02243214,-0.0034600156,0.10142155,-0.023278823,0.9945711,0.9948436,0.0023732118,-0.10139378,0.0,-0.99972624,-0.023399483,0.7924807495117187,-0.18914193115234373,8.238447912597655,4.652855,-0.42993563,45.64486,0.019958496
0.032375191468291764,0.029310872934255914,-0.014522205226517705,0.03280287,0.02243214,-0.0034600156,0.10142155,-0.023278823,0.9945711,0.9948436,0.0023732118,-0.10139378,0.0,-0.99972624,-0.023399483,0.814028564453125,-0.143652099609375,8.204929089355469,4.669052,-0.42993563,45.808117,0.019897461
0.028378254249984136,0.028111791768763626,-0.016120980113840753,0.03280287,0.02243214,-0.0034600156,0.10142155,-0.023278823,0.9945711,0.9948436,0.0023732118,-0.10139378,0.0,-0.99972624,-0.023399483,0.8355763793945312,-0.15083470458984374,8.207323291015625,4.6861877,-0.42993563,45.976433,0.020507812
0.03290811643073278,0.031176110302799476,-0.014655436467127957,0.03280287,0.02243214,-0.0034600156,0.10142155,-0.023278823,0.9945711,0.9948436,0.0023732118,-0.10139378,0.0,-0.99972624,-0.023399483,0.8355763793945312,-0.21787235107421873,8.204929089355469,4.7028646,-0.43428403,46.14019,0.019958496
0.03477335379927634,0.02997702913730719,-0.012390505376753637,0.03280287,0.02243214,-0.0034600156,0.10142155,-0.023278823,0.9945711,0.9948436,0.0023732118,-0.10139378,0.0,-0.99972624,-0.023399483,0.8714894042968749,-0.181959326171875,8.343792785644531,4.7202053,-0.43428403,46.30621,0.019897461
0.03011026037791744,0.02971056665608668,-0.016387442595061263,0.03280287,0.02243214,-0.0034600156,0.10142155,-0.023278823,0.9945711,0.9948436,0.0023732118,-0.10139378,0.0,-0.99972624,-0.023399483,0.8714894042968749,-0.20829554443359374,8.28633194580078,4.7374926,-0.43841588,46.47058,0.019836426
0.032774885190122525,0.02717917308449185,-0.013989280264076687,0.03280287,0.02243214,-0.0034600156,0.10142155,-0.023278823,0.9945711,0.9948436,0.0023732118,-0.10139378,0.0,-0.99972624,-0.023399483,0.8403647827148437,-0.17477672119140625,8.312668164062499,4.7541623,-0.43841588,46.635475,0.019836426
0.03503981628049684,0.028245023009373885,-0.018785604926045835,0.03280287,0.02243214,-0.0034600156,0.10142155,-0.023278823,0.9945711,0.9948436,0.0023732118,-0.10139378,0.0,-0.99972624,-0.023399483,0.8212111694335937,-0.16759411621093748,8.226476904296874,4.7705526,-0.43841588,46.799664,0.019958496
0.036105666205378875,0.026646248122050836,-0.01532159267017923,0.03280287,0.02243214,-0.0034600156,0.10142155,-0.023278823,0.9945711,0.9948436,0.0023732118,-0.10139378,0.0,-0.99972624,-0.023399483,0.8044517578125,-0.2059013427734375,8.233659509277343,4.786608,-0.44252536,46.963997,0.019958496
0.027312404325102103,0.031575804024630234,-0.013056661579804908,0.03280287,0.02243214,-0.0034600156,0.10142155,-0.023278823,0.9945711,0.9948436,0.0023732118,-0.10139378,0.0,-0.99972624,-0.023399483,0.8116343627929687,-0.2154781494140625,8.312668164062499,4.8028073,-0.44682598,47.129906,0.019958496
0.03317457891195329,0.031176110302799476,-0.016254211354451008,0.03280287,0.02243214,-0.0034600156,0.10142155,-0.023278823,0.9945711,0.9948436,0.0023732118,-0.10139378,0.0,-0.99972624,-0.023399483,0.8283937744140625,-0.1771709228515625,8.2743609375,4.81929,-0.44682598,47.294544,0.019897461
0.03357427263378405,0.026113323159609816,-0.01372281778285618,0.03280287,0.02243214,-0.0034600156,0.10142155,-0.023278823,0.9945711,0.9948436,0.0023732118,-0.10139378,0.0,-0.99972624,-0.023399483,0.8547299926757812,-0.24181436767578124,8.164227661132813,4.836297,-0.45163748,47.456993,0.019897461
0.032108728987071254,0.032241960227681506,-0.01532159267017923,0.03280287,0.02243214,-0.0034600156,0.10142155,-0.023278823,0.9945711,0.9948436,0.0023732118,-0.10139378,0.0,-0.99972624,-0.023399483,0.852335791015625,-0.1771709228515625,8.276755139160155,4.853308,-0.45163748,47.622185,0.019958496
0.03011026037791744,0.031975497746460996,-0.012923430339194655,0.03280287,0.02243214,-0.0034600156,0.10142155,-0.023278823,0.9945711,0.9948436,0.0023732118,-0.10139378,0.0,-0.99972624,-0.023399483,0.9576806640625,-0.239420166015625,8.350975390624999,4.872422,-0.45641595,47.788857,0.019958496
0.031176110302799476,0.027312404325102103,-0.015588055151399738,0.03280287,0.02243214,-0.0034600156,0.10142155,-0.023278823,0.9945711,0.9948436,0.0023732118,-0.10139378,0.0,-0.99972624,-0.023399483,0.7996633544921875,-0.19632453613281248,8.269572534179687,4.8883333,-0.45641595,47.9534,0.019897461
0.03264165394951227,0.03011026037791744,-0.01572128639200999,0.03280287,0.02243214,-0.0034600156,0.10142155,-0.023278823,0.9945711,0.9948436,0.0023732118,-0.10139378,0.0,-0.99972624,-0.023399483,0.8714894042968749,-0.16280571289062498,8.2743609375,4.905674,-0.45641595,48.11804,0.019897461
0.035972434964768624,0.027978560528153375,-0.014655436467127957,0.03280287,0.02243214,-0.0034600156,0.10142155,-0.023278823,0.9945711,0.9948436,0.0023732118,-0.10139378,0.0,-0.99972624,-0.023399483,0.8451531860351562,-0.1867477294921875,8.238447912597655,4.9224386,-0.45641595,48.28146,0.019836426
0.030909647821578966,0.027845329287543123,-0.015588055151399738,0.03280287,0.02243214,-0.0034600156,0.10142155,-0.023278823,0.9945711,0.9948436,0.0023732118,-0.10139378,0.0,-0.99972624,-0.023399483,0.8092401611328125,-0.20350714111328125,8.279149340820313,4.938491,-0.4604528,48.44569,0.019836426
0.03144257278401998,0.03144257278401998,-0.01705359879811253,0.03280287,0.02243214,-0.0034600156,0.10142155,-0.023278823,0.9945711,0.9948436,0.0023732118,-0.10139378,0.0,-0.99972624,-0.023399483,0.7613561279296874,-0.16280571289062498,8.288726147460936,4.9541044,-0.4604528,48.615673,0.020507812
0.031575804024630234,0.030909647821578966,-0.015188361429568975,0.03280287,0.02243214,-0.0034600156,0.10142155,-0.023278823,0.9945711,0.9948436,0.0023732118,-0.10139378,0.0,-0.99972624,-0.023399483,0.8451531860351562,-0.20350714111328125,8.317456567382813,4.9709725,-0.4645145,48.781677,0.019958496
0.030909647821578966,0.031176110302799476,-0.016387442595061263,0.03280287,0.02243214,-0.0034600156,0.10142155,-0.023278823,0.9945711,0.9948436,0.0023732118,-0.10139378,0.0,-0.99972624,-0.023399483,0.8355763793945312,-0.143652099609375,8.219294299316406,4.9876494,-0.4645145,48.94572,0.019958496
0.032241960227681506,0.027845329287543123,-0.014921898948348467,0.03280287,0.02243214,-0.0034600156,0.10142155,-0.023278823,0.9945711,0.9948436,0.0023732118,-0.10139378,0.0,-0.99972624,-0.023399483,0.8858546142578124,-0.19153613281249998,8.317456567382813,5.0052757,-0.4645145,49.111217,0.019897461
0.032774885190122525,0.026513016881440577,-0.016387442595061263,0.03280287,0.02243214,-0.0034600156,0.10142155,-0.023278823,0.9945711,0.9948436,0.0023732118,-0.10139378,0.0,-0.99972624,-0.023399483,0.928950244140625,-0.15562310791015624,8.310273962402343,5.0237594,-0.4645145,49.27657,0.019897461
0.03384073511500456,0.03064318534035846,-0.019052067407266345,0.03280287,0.02243214,-0.0034600156,0.10142155,-0.023278823,0.9945711,0.9948436,0.0023732118,-0.10139378,0.0,-0.99972624,-0.023399483,0.8858546142578124,-0.2442085693359375,8.259995727539062,5.041332,-0.4693587,49.44042,0.019836426
0.03384073511500456,0.02997702913730719,-0.016653905076281773,0.03280287,0.02243214,-0.0034600156,0.10142155,-0.023278823,0.9945711,0.9948436,0.0023732118,-0.10139378,0.0,-0.99972624,-0.023399483,0.8475473876953125,-0.17956512451171874,8.245630517578125,5.058144,-0.4693587,49.60398,0.019836426
0.0334410413931738,0.0287779479718149,-0.016387442595061263,0.03280287,0.02243214,-0.0034600156,0.10142155,-0.023278823,0.9945711,0.9948436,0.0023732118,-0.10139378,0.0,-0.99972624,-0.023399483,0.7302315063476562,-0.16519991455078123,8.269572534179687,5.0726295,-0.4693587,49.76802,0.019836426
0.03264165394951227,0.031176110302799476,-0.015188361429568975,0.03280287,0.02243214,-0.0034600156,0.10142155,-0.023278823,0.9945711,0.9948436,0.0023732118,-0.10139378,0.0,-0.99972624,-0.023399483,0.7948749511718749,-0.15562310791015624,8.231265307617187,5.088397,-0.4693587,49.9313,0.019836426
0.03290811643073278,0.029177641693645662,-0.016520673835671518,0.03280287,0.02243214,-0.0034600156,0.10142155,-0.023278823,0.9945711,0.9948436,0.0023732118,-0.10139378,0.0,-0.99972624,-0.023399483,0.8164227661132812,-0.22505495605468748,8.233659509277343,5.104592,-0.473823,50.094627,0.019836426
0.033307810152563545,0.027578866806322613,-0.014788667707738212,0.03280287,0.02243214,-0.0034600156,0.10142155,-0.023278823,0.9945711,0.9948436,0.0023732118,-0.10139378,0.0,-0.99972624,-0.023399483,0.8547299926757812,-0.143652099609375,8.228871105957031,5.1215467,-0.473823,50.25786,0.019836426
0.032508422708902016,0.029177641693645662,-0.014655436467127957,0.03280287,0.02243214,-0.0034600156,0.10142155,-0.023278823,0.9945711,0.9948436,0.0023732118,-0.10139378,0.0,-0.99972624,-0.023399483,0.8547299926757812,-0.201112939453125,8.317456567382813,5.1385016,-0.47781238,50.422848,0.019836426
0.028911179212425153,0.03011026037791744,-0.017186830038722786,0.03280287,0.02243214,-0.0034600156,0.10142155,-0.023278823,0.9945711,0.9948436,0.0023732118,-0.10139378,0.0,-0.99972624,-0.023399483,0.8834604125976562,-0.15083470458984374,8.281543542480469,5.1560802,-0.47781238,50.58763,0.019897461
0.03477335379927634,0.032241960227681506,-0.014522205226517705,0.03280287,0.02243214,-0.0034600156,0.10142155,-0.023278823,0.9945711,0.9948436,0.0023732118,-0.10139378,0.0,-0.99972624,-0.023399483,0.8475473876953125,-0.21787235107421873,8.25520732421875,5.1728406,-0.4821209,50.75088,0.01977539
0.03477335379927634,0.02971056665608668,-0.013589586542245924,0.03280287,0.02243214,-0.0034600156,0.10142155,-0.023278823,0.9945711,0.9948436,0.0023732118,-0.10139378,0.0,-0.99972624,-0.023399483,0.7852981445312499,-0.13168109130859373,8.221688500976562,5.188418,-0.4821209,50.91397,0.019836426
0.03357427263378405,0.03011026037791744,-0.014921898948348467,0.03280287,0.02243214,-0.0034600156,0.10142155,-0.023278823,0.9945711,0.9948436,0.0023732118,-0.10139378,0.0,-0.99972624,-0.023399483,0.8786720092773437,-0.2059013427734375,8.2743609375,5.2063837,-0.48633093,51.083157,0.020446777
0.03317457891195329,0.03077641658096871,-0.020917304775809907,0.03280287,0.02243214,-0.0034600156,0.10142155,-0.023278823,0.9945711,0.9948436,0.0023732118,-0.10139378,0.0,-0.99972624,-0.023399483,0.8906430175781249,-0.239420166015625,8.231265307617187,5.2241597,-0.4911094,51.24744,0.019958496
0.035173047521107094,0.0305099540997482,-0.015454823910789483,0.03280287,0.02243214,-0.0034600156,0.10142155,-0.023278823,0.9945711,0.9948436,0.0023732118,-0.10139378,0.0,-0.99972624,-0.023399483,0.8667010009765624,-0.14604630126953125,8.2743609375,5.241405,-0.4911094,51.41208,0.019897461
0.028378254249984136,0.032241960227681506,-0.014788667707738212,0.03280287,0.02243214,-0.0034600156,0.10142155,-0.023278823,0.9945711,0.9948436,0.0023732118,-0.10139378,0.0,-0.99972624,-0.023399483,0.8355763793945312,-0.2154781494140625,8.300697155761718,5.25798,-0.4953837,51.576736,0.019836426
0.036372128686599385,0.02971056665608668,-0.016254211354451008,0.03280287,0.02243214,-0.0034600156,0.10142155,-0.023278823,0.9945711,0.9948436,0.0023732118,-0.10139378,0.0,-0.99972624,-0.023399483,0.8283937744140625,-0.143652099609375,8.212111694335936,5.274412,-0.4953837,51.739635,0.019836426
0.03530627876171736,0.027045941843881597,-0.017719755001163805,0.03280287,0.02243214,-0.0034600156,0.10142155,-0.023278823,0.9945711,0.9948436,0.0023732118,-0.10139378,0.0,-0.99972624,-0.023399483,0.7829039428710937,-0.229843359375,8.25520732421875,5.28999,-0.499957,51.903893,0.019897461
0.031042879062189218,0.028911179212425153,-0.011058192970651094,0.03280287,0.02243214,-0.0034600156,0.10142155,-0.023278823,0.9945711,0.9948436,0.0023732118,-0.10139378,0.0,-0.99972624,-0.023399483,0.9050082275390624,-0.15322890625,8.269572534179687,5.307997,-0.499957,52.068436,0.019897461
0.033041347671343035,0.032774885190122525,-0.015188361429568975,0.03280287,0.02243214,-0.0034600156,0.10142155,-0.023278823,0.9945711,0.9948436,0.0023732118,-0.10139378,0.0,-0.99972624,-0.023399483,0.8451531860351562,-0.1867477294921875,8.28633194580078,5.324814,-0.499957,52.233315,0.019897461
0.03290811643073278,0.031176110302799476,-0.016787136316892024,0.03280287,0.02243214,-0.0034600156,0.10142155,-0.023278823,0.9945711,0.9948436,0.0023732118,-0.10139378,0.0,-0.99972624,-0.023399483,0.9026140258789062,-0.18914193115234373,8.33182177734375,5.3428288,-0.499957,52.399605,0.019958496
0.02971056665608668,0.03144257278401998,-0.013856049023466432,0.03280287,0.02243214,-0.0034600156,0.10142155,-0.023278823,0.9945711,0.9948436,0.0023732118,-0.10139378,0.0,-0.99972624,-0.023399483,0.8667010009765624,-0.21068974609375,8.279149340820313,5.360074,-0.5041492,52.56434,0.019897461
0.031975497746460996,0.02851148549059439,-0.015588055151399738,0.03280287,0.02243214,-0.0034600156,0.10142155,-0.023278823,0.9945711,0.9948436,0.0023732118,-0.10139378,0.0,-0.99972624,-0.023399483,0.8762778076171874,-0.19153613281249998,8.262389929199218,5.377456,-0.5041492,52.728233,0.019836426
0.031575804024630234,0.028911179212425153,-0.017586523760553547,0.03280287,0.02243214,-0.0034600156,0.10142155,-0.023278823,0.9945711,0.9948436,0.0023732118,-0.10139378,0.0,-0.99972624,-0.023399483,0.8283937744140625,-0.229843359375,8.228871105957031,5.3938885,-0.5087085,52.891464,0.019836426
0.031575804024630234,0.02851148549059439,-0.018252679963604822,0.03280287,0.02243214,-0.0034600156,0.10142155,-0.023278823,0.9945711,0.9948436,0.0023732118,-0.10139378,0.0,-0.99972624,-0.023399483,0.8355763793945312,-0.22026655273437498,8.238447912597655,5.4104633,-0.5130778,53.054886,0.019836426
0.03037672285913795,0.03011026037791744,-0.011990811654922875,0.03280287,0.02243214,-0.0034600156,0.10142155,-0.023278823,0.9945711,0.9948436,0.0023732118,-0.10139378,0.0,-0.99972624,-0.023399483,0.9074024291992187,-0.181959326171875,8.245630517578125,5.428463,-0.5130778,53.21845,0.019836426
0.032241960227681506,0.028111791768763626,-0.012656967857974145,0.03280287,0.02243214,-0.0034600156,0.10142155,-0.023278823,0.9945711,0.9948436,0.0023732118,-0.10139378,0.0,-0.99972624,-0.023399483,0.82360537109375,-0.2753331909179687,8.226476904296874,5.444901,-0.51857305,53.382637,0.019958496
0.0302434916185277,0.03064318534035846,-0.014655436467127957,0.03280287,0.02243214,-0.0034600156,0.10142155,-0.023278823,0.9945711,0.9948436,0.0023732118,-0.10139378,0.0,-0.99972624,-0.023399483,0.8571241943359375,-0.16280571289062498,8.161833459472655,5.4622173,-0.51857305,53.547527,0.020202637
0.032108728987071254,0.03011026037791744,-0.014788667707738212,0.03280287,0.02243214,-0.0034600156,0.10142155,-0.023278823,0.9945711,0.9948436,0.0023732118,-0.10139378,0.0,-0.99972624,-0.023399483,0.9145850341796874,-0.2154781494140625,8.257601525878906,5.4813643,-0.5230841,53.7204,0.020935059
0.0334410413931738,0.031575804024630234,-0.01505513018895872,0.03280287,0.02243214,-0.0034600156,0.10142155,-0.023278823,0.9945711,0.9948436,0.0023732118,-0.10139378,0.0,-0.99972624,-0.023399483,0.8475473876953125,-0.239420166015625,8.180987072753906,5.498642,-0.5279649,53.887177,0.020385742
0.03290811643073278,0.029310872934255914,-0.017453292519943295,0.03280287,0.02243214,-0.0034600156,0.10142155,-0.023278823,0.9945711,0.9948436,0.0023732118,-0.10139378,0.0,-0.99972624,-0.023399483,0.8834604125976562,-0.14604630126953125,8.365340600585936,5.516652,-0.5279649,54.05771,0.020385742
0.0302434916185277,0.03130934154340973,-0.014255742745297196,0.03280287,0.02243214,-0.0034600156,0.10142155,-0.023278823,0.9945711,0.9948436,0.0023732118,-0.10139378,0.0,-0.99972624,-0.023399483,0.8259995727539062,-0.24181436767578124,8.279149340820313,5.533541,-0.5329092,54.22699,0.020446777
0.03477335379927634,0.03037672285913795,-0.01372281778285618,0.03280287,0.02243214,-0.0034600156,0.10142155,-0.023278823,0.9945711,0.9948436,0.0023732118,-0.10139378,0.0,-0.99972624,-0.023399483,0.8355763793945312,-0.15083470458984374,8.224082702636718,5.550677,-0.5329092,54.39565,0.020507812
0.029444104174866172,0.029310872934255914,-0.013856049023466432,0.03280287,0.02243214,-0.0034600156,0.10142155,-0.023278823,0.9945711,0.9948436,0.0023732118,-0.10139378,0.0,-0.99972624,-0.023399483,0.8283937744140625,-0.14604630126953125,8.303091357421874,5.56721,-0.5329092,54.561367,0.019958496
0.035173047521107094,0.026779479362661087,-0.016520673835671518,0.03280287,0.02243214,-0.0034600156,0.10142155,-0.023278823,0.9945711,0.9948436,0.0023732118,-0.10139378,0.0,-0.99972624,-0.023399483,0.82360537109375,-0.201112939453125,8.24802471923828,5.5835977,-0.53691083,54.725483,0.019897461
0.03424042883683532,0.02971056665608668,-0.015454823910789483,0.03280287,0.02243214,-0.0034600156,0.10142155,-0.023278823,0.9945711,0.9948436,0.0023732118,-0.10139378,0.0,-0.99972624,-0.023399483,0.8259995727539062,-0.181959326171875,8.295908752441406,5.600033,-0.53691083,54.89055,0.019897461
0.031975497746460996,0.0334410413931738,-0.01212404289553313,0.03280287,0.02243214,-0.0034600156,0.10142155,-0.023278823,0.9945711,0.9948436,0.0023732118,-0.10139378,0.0,-0.99972624,-0.023399483,0.9002198242187499,-0.22266075439453123,8.226476904296874,5.6179447,-0.54134125,55.054234,0.019897461
0.029177641693645662,0.030909647821578966,-0.015854517632620246,0.03280287,0.02243214,-0.0034600156,0.10142155,-0.023278823,0.9945711,0.9948436,0.0023732118,-0.10139378,0.0,-0.99972624,-0.023399483,0.8355763793945312,-0.21068974609375,8.21690009765625,5.6345706,-0.5455334,55.217728,0.019897461
0.03077641658096871,0.02971056665608668,-0.015854517632620246,0.03280287,0.02243214,-0.0034600156,0.10142155,-0.023278823,0.9945711,0.9948436,0.0023732118,-0.10139378,0.0,-0.99972624,-0.023399483,0.8355763793945312,-0.2154781494140625,8.250418920898436,5.6512985,-0.5498472,55.382896,0.020019531
0.036105666205378875,0.029310872934255914,-0.017453292519943295,0.03280287,0.02243214,-0.0034600156,0.10142155,-0.023278823,0.9945711,0.9948436,0.0023732118,-0.10139378,0.0,-0.99972624,-0.023399483,0.8475473876953125,-0.18914193115234373,8.283937744140625,5.668111,-0.5498472,55.54722,0.019836426
0.03264165394951227,0.03064318534035846,-0.013056661579804908,0.03280287,0.02243214,-0.0034600156,0.10142155,-0.023278823,0.9945711,0.9948436,0.0023732118,-0.10139378,0.0,-0.99972624,-0.023399483,0.8044517578125,-0.19153613281249998,8.250418920898436,5.6841173,-0.5498472,55.71138,0.019897461
0.031842266505850744,0.029444104174866172,-0.016120980113840753,0.03280287,0.02243214,-0.0034600156,0.10142155,-0.023278823,0.9945711,0.9948436,0.0023732118,-0.10139378,0.0,-0.99972624,-0.023399483,0.8786720092773437,-0.23223756103515625,8.310273962402343,5.701547,-0.55445397,55.876225,0.019836426
0.033307810152563545,0.03077641658096871,-0.01212404289553313,0.03280287,0.02243214,-0.0034600156,0.10142155,-0.023278823,0.9945711,0.9948436,0.0023732118,-0.10139378,0.0,-0.99972624,-0.023399483,0.8475473876953125,-0.17956512451171874,8.204929089355469,5.7183595,-0.55445397,56.038982,0.019836426
0.03543951000232761,0.03170903526524049,-0.016120980113840753,0.03280287,0.02243214,-0.0034600156,0.10142155,-0.023278823,0.9945711,0.9948436,0.0023732118,-0.10139378,0.0,-0.99972624,-0.023399483,0.833182177734375,-0.18435352783203124,8.245630517578125,5.7349377,-0.55445397,56.20305,0.019897461
0.032774885190122525,0.031975497746460996,-0.015987748873230498,0.03280287,0.02243214,-0.0034600156,0.10142155,-0.023278823,0.9945711,0.9948436,0.0023732118,-0.10139378,0.0,-0.99972624,-0.023399483,0.8307879760742187,-0.15322890625,8.288726147460936,5.7519245,-0.55445397,56.372528,0.020446777
0.0334410413931738,0.028245023009373885,-0.018918836166656093,0.03280287,0.02243214,-0.0034600156,0.10142155,-0.023278823,0.9945711,0.9948436,0.0023732118,-0.10139378,0.0,-0.99972624,-0.023399483,0.8978256225585937,-0.21068974609375,8.298302954101562,5.7698436,-0.558659,56.53815,0.019958496
0.029444104174866172,0.031176110302799476,-0.016120980113840753,0.03280287,0.02243214,-0.0034600156,0.10142155,-0.023278823,0.9945711,0.9948436,0.0023732118,-0.10139378,0.0,-0.99972624,-0.023399483,0.8475473876953125,-0.15083470458984374,8.24802471923828,5.7867074,-0.558659,56.702267,0.019897461
0.03357427263378405,0.029843797896696934,-0.016254211354451008,0.03280287,0.02243214,-0.0034600156,0.10142155,-0.023278823,0.9945711,0.9948436,0.0023732118,-0.10139378,0.0,-0.99972624,-0.023399483,0.8307879760742187,-0.13646949462890623,8.327033374023436,5.803238,-0.558659,56.867954,0.019897461
0.03437366007744557,0.0305099540997482,-0.015854517632620246,0.03280287,0.02243214,-0.0034600156,0.10142155,-0.023278823,0.9945711,0.9948436,0.0023732118,-0.10139378,0.0,-0.99972624,-0.023399483,0.8571241943359375,-0.20350714111328125,8.221688500976562,5.82024,-0.56269586,57.031044,0.019836426
0.031042879062189218,0.028911179212425153,-0.015854517632620246,0.03280287,0.02243214,-0.0034600156,0.10142155,-0.023278823,0.9945711,0.9948436,0.0023732118,-0.10139378,0.0,-0.99972624,-0.023399483,0.8020575561523438,-0.2537853759765625,8.283937744140625,5.83615,-0.56773007,57.195366,0.019836426
0.02971056665608668,0.028378254249984136,-0.016254211354451008,0.03280287,0.02243214,-0.0034600156,0.10142155,-0.023278823,0.9945711,0.9948436,0.0023732118,-0.10139378,0.0,-0.99972624,-0.023399483,0.8547299926757812,-0.20829554443359374,8.17141026611328,5.853157,-0.5718746,57.357956,0.019897461
0.03064318534035846,0.026379785640830326,-0.01505513018895872,0.03280287,0.02243214,-0.0034600156,0.10142155,-0.023278823,0.9945711,0.9948436,0.0023732118,-0.10139378,0.0,-0.99972624,-0.023399483,0.8068459594726562,-0.19871873779296872,8.358157995605469,5.869211,-0.5718746,57.52426,0.019897461
0.03317457891195329,0.03037672285913795,-0.01505513018895872,0.03280287,0.02243214,-0.0034600156,0.10142155,-0.023278823,0.9945711,0.9948436,0.0023732118,-0.10139378,0.0,-0.99972624,-0.023399483,0.8451531860351562,-0.20829554443359374,8.147468249511718,5.885976,-0.5760065,57.68588,0.019836426
0.033307810152563545,0.029310872934255914,-0.013056661579804908,0.03280287,0.02243214,-0.0034600156,0.10142155,-0.023278823,0.9945711,0.9948436,0.0023732118,-0.10139378,0.0,-0.99972624,-0.023399483,0.8547299926757812,-0.18435352783203124,8.233659509277343,5.9029307,-0.5760065,57.849205,0.019836426
0.032108728987071254,0.028245023009373885,-0.01438897398590745,0.03280287,0.02243214,-0.0034600156,0.10142155,-0.023278823,0.9945711,0.9948436,0.0023732118,-0.10139378,0.0,-0.99972624,-0.023399483,0.82360537109375,-0.086191259765625,8.224082702636718,5.919268,-0.5760065,58.01234,0.019836426
0.03130934154340973,0.03037672285913795,-0.01732006127933304,0.03280287,0.02243214,-0.0034600156,0.10142155,-0.023278823,0.9945711,0.9948436,0.0023732118,-0.10139378,0.0,-0.99972624,-0.023399483,0.8164227661132812,-0.1867477294921875,8.250418920898436,5.935513,-0.5760065,58.176502,0.019897461
0.032774885190122525,0.03011026037791744,-0.013589586542245924,0.03280287,0.02243214,-0.0034600156,0.10142155,-0.023278823,0.9945711,0.9948436,0.0023732118,-0.10139378,0.0,-0.99972624,-0.023399483,0.8092401611328125,-0.2154781494140625,8.322244970703125,5.9515653,-0.5802808,58.341587,0.019836426
0.032774885190122525,0.028245023009373885,-0.015454823910789483,0.03280287,0.02243214,-0.0034600156,0.10142155,-0.023278823,0.9945711,0.9948436,0.0023732118,-0.10139378,0.0,-0.99972624,-0.023399483,0.7996633544921875,-0.1771709228515625,8.281543542480469,5.9674277,-0.5802808,58.505863,0.019836426
0.035705972483548114,0.031042879062189218,-0.01705359879811253,0.03280287,0.02243214,-0.0034600156,0.10142155,-0.023278823,0.9945711,0.9948436,0.0023732118,-0.10139378,0.0,-0.99972624,-0.023399483,0.82360537109375,-0.229843359375,8.21690009765625,5.983765,-0.58484006,58.668858,0.019836426
0.02971056665608668,0.02904441045303541,-0.019052067407266345,0.03280287,0.02243214,-0.0034600156,0.10142155,-0.023278823,0.9945711,0.9948436,0.0023732118,-0.10139378,0.0,-0.99972624,-0.023399483,0.7398083129882812,-0.1197100830078125,8.336610180664062,5.9984403,-0.58484006,58.834225,0.019836426
0.037171516130260915,0.03011026037791744,-0.013589586542245924,0.03280287,0.02243214,-0.0034600156,0.10142155,-0.023278823,0.9945711,0.9948436,0.0023732118,-0.10139378,0.0,-0.99972624,-0.023399483,0.9097966308593749,-0.14125789794921875,8.2743609375,6.0170426,-0.58484006,59.00341,0.020446777
0.033307810152563545,0.0287779479718149,-0.016653905076281773,0.03280287,0.02243214,-0.0034600156,0.10142155,-0.023278823,0.9945711,0.9948436,0.0023732118,-0.10139378,0.0,-0.99972624,-0.023399483,0.833182177734375,-0.16280571289062498,8.259995727539062,6.03357,-0.58484006,59.16726,0.019836426
0.033307810152563545,0.032108728987071254,-0.014788667707738212,0.03280287,0.02243214,-0.0034600156,0.10142155,-0.023278823,0.9945711,0.9948436,0.0023732118,-0.10139378,0.0,-0.99972624,-0.023399483,0.8738836059570312,-0.17956512451171874,8.212111694335936,6.0509048,-0.58484006,59.33016,0.019836426
0.028911179212425153,0.02904441045303541,-0.015454823910789483,0.03280287,0.02243214,-0.0034600156,0.10142155,-0.023278823,0.9945711,0.9948436,0.0023732118,-0.10139378,0.0,-0.99972624,-0.023399483,0.8355763793945312,-0.229843359375,8.257601525878906,6.0675306,-0.58941334,59.494465,0.019897461
0.02997702913730719,0.03037672285913795,-0.014655436467127957,0.03280287,0.02243214,-0.0034600156,0.10142155,-0.023278823,0.9945711,0.9948436,0.0023732118,-0.10139378,0.0,-0.99972624,-0.023399483,0.8164227661132812,-0.21308394775390624,8.245630517578125,6.0837255,-0.59364015,59.658028,0.019836426
0.035173047521107094,0.03037672285913795,-0.014255742745297196,0.03280287,0.02243214,-0.0034600156,0.10142155,-0.023278823,0.9945711,0.9948436,0.0023732118,-0.10139378,0.0,-0.99972624,-0.023399483,0.8690952026367187,-0.16519991455078123,8.224082702636718,6.100965,-0.59364015,59.821163,0.019836426
0.03357427263378405,0.03064318534035846,-0.016120980113840753,0.03280287,0.02243214,-0.0034600156,0.10142155,-0.023278823,0.9945711,0.9948436,0.0023732118,-0.10139378,0.0,-0.99972624,-0.023399483,0.8547299926757812,-0.18914193115234373,8.2743609375,6.11792,-0.59364015,59.9853,0.019836426
0.02851148549059439,0.03130934154340973,-0.012390505376753637,0.03280287,0.02243214,-0.0034600156,0.10142155,-0.023278823,0.9945711,0.9948436,0.0023732118,-0.10139378,0.0,-0.99972624,-0.023399483,0.8116343627929687,-0.1771709228515625,8.233659509277343,6.13402,-0.59364015,60.148624,0.019836426
0.03011026037791744,0.03077641658096871,-0.01505513018895872,0.03280287,0.02243214,-0.0034600156,0.10142155,-0.023278823,0.9945711,0.9948436,0.0023732118,-0.10139378,0.0,-0.99972624,-0.023399483,0.8451531860351562,-0.19393033447265623,8.267178332519531,6.1508365,-0.59364015,60.31312,0.019897461
0.03264165394951227,0.02997702913730719,-0.016120980113840753,0.03280287,0.02243214,-0.0034600156,0.10142155,-0.023278823,0.9945711,0.9948436,0.0023732118,-0.10139378,0.0,-0.99972624,-0.023399483,0.7972691528320313,-0.181959326171875,8.257601525878906,6.1667,-0.59364015,60.47743,0.019897461
0.03357427263378405,0.027845329287543123,-0.018918836166656093,0.03280287,0.02243214,-0.0034600156,0.10142155,-0.023278823,0.9945711,0.9948436,0.0023732118,-0.10139378,0.0,-0.99972624,-0.023399483,0.8954314208984374,-0.14125789794921875,8.238447912597655,6.184517,-0.59364015,60.641354,0.019897461
0.032108728987071254,0.0302434916185277,-0.013189892820415163,0.03280287,0.02243214,-0.0034600156,0.10142155,-0.023278823,0.9945711,0.9948436,0.0023732118,-0.10139378,0.0,-0.99972624,-0.023399483,0.8188169677734375,-0.16280571289062498,8.298302954101562,6.200859,-0.59364015,60.806976,0.019958496
0.03290811643073278,0.032108728987071254,-0.012656967857974145,0.03280287,0.02243214,-0.0034600156,0.10142155,-0.023278823,0.9945711,0.9948436,0.0023732118,-0.10139378,0.0,-0.99972624,-0.023399483,0.8643067993164062,-0.16998831787109375,8.269572534179687,6.2180567,-0.59364015,60.97152,0.019897461
0.03477335379927634,0.02997702913730719,-0.01532159267017923,0.03280287,0.02243214,-0.0034600156,0.10142155,-0.023278823,0.9945711,0.9948436,0.0023732118,-0.10139378,0.0,-0.99972624,-0.023399483,0.8571241943359375,-0.20829554443359374,8.281543542480469,6.235111,-0.5977847,61.136303,0.019897461
0.0334410413931738,0.03011026037791744,-0.017986217482384312,0.03280287,0.02243214,-0.0034600156,0.10142155,-0.023278823,0.9945711,0.9948436,0.0023732118,-0.10139378,0.0,-0.99972624,-0.023399483,0.7972691528320313,-0.13407529296874998,8.288726147460936,6.250926,-0.5977847,61.30072,0.019836426
0.03424042883683532,0.030909647821578966,-0.015454823910789483,0.03280287,0.02243214,-0.0034600156,0.10142155,-0.023278823,0.9945711,0.9948436,0.0023732118,-0.10139378,0.0,-0.99972624,-0.023399483,0.8810662109374999,-0.23702596435546874,8.231265307617187,6.268887,-0.60261667,61.46852,0.020385742
0.03464012255866608,0.03317457891195329,-0.01692036755750228,0.03280287,0.02243214,-0.0034600156,0.10142155,-0.023278823,0.9945711,0.9948436,0.0023732118,-0.10139378,0.0,-0.99972624,-0.023399483,0.7805097412109374,-0.16280571289062498,8.224082702636718,6.284465,-0.60261667,61.63266,0.019958496
0.032375191468291764,0.029843797896696934,-0.014788667707738212,0.03280287,0.02243214,-0.0034600156,0.10142155,-0.023278823,0.9945711,0.9948436,0.0023732118,-0.10139378,0.0,-0.99972624,-0.023399483,0.8451531860351562,-0.143652099609375,8.262389929199218,6.3012815,-0.60261667,61.797062,0.019897461
0.03077641658096871,0.029177641693645662,-0.013989280264076687,0.03280287,0.02243214,-0.0034600156,0.10142155,-0.023278823,0.9945711,0.9948436,0.0023732118,-0.10139378,0.0,-0.99972624,-0.023399483,0.8667010009765624,-0.1771709228515625,8.32463917236328,6.3186326,-0.60261667,61.96372,0.020019531
0.03397396635561481,0.02904441045303541,-0.015454823910789483,0.03280287,0.02243214,-0.0034600156,0.10142155,-0.023278823,0.9945711,0.9948436,0.0023732118,-0.10139378,0.0,-0.99972624,-0.023399483,0.8667010009765624,-0.17477672119140625,8.245630517578125,6.335878,-0.60261667,62.127785,0.019897461
0.032774885190122525,0.031176110302799476,-0.016653905076281773,0.03280287,0.02243214,-0.0034600156,0.10142155,-0.023278823,0.9945711,0.9948436,0.0023732118,-0.10139378,0.0,-0.99972624,-0.023399483,0.8307879760742187,-0.17238251953125,8.288726147460936,6.352459,-0.60261667,62.293217,0.019958496
0.03464012255866608,0.02904441045303541,-0.014522205226517705,0.03280287,0.02243214,-0.0034600156,0.10142155,-0.023278823,0.9945711,0.9948436,0.0023732118,-0.10139378,0.0,-0.99972624,-0.023399483,0.8858546142578124,-0.1771709228515625,8.267178332519531,6.3700314,-0.60261667,62.457207,0.019836426
0.032108728987071254,0.029177641693645662,-0.01532159267017923,0.03280287,0.02243214,-0.0034600156,0.10142155,-0.023278823,0.9945711,0.9948436,0.0023732118,-0.10139378,0.0,-0.99972624,-0.023399483,0.8786720092773437,-0.22026655273437498,8.291120349121094,6.387461,-0.606986,62.621674,0.019836426
0.0334410413931738,0.031842266505850744,-0.014655436467127957,0.03280287,0.02243214,-0.0034600156,0.10142155,-0.023278823,0.9945711,0.9948436,0.0023732118,-0.10139378,0.0,-0.99972624,-0.023399483,0.8547299926757812,-0.2154781494140625,8.231265307617187,6.404468,-0.61127347,62.785454,0.019897461
0.03450689131805583,0.03064318534035846,-0.012523736617363892,0.03280287,0.02243214,-0.0034600156,0.10142155,-0.023278823,0.9945711,0.9948436,0.0023732118,-0.10139378,0.0,-0.99972624,-0.023399483,0.8667010009765624,-0.16759411621093748,8.24802471923828,6.4217134,-0.61127347,62.94957,0.019897461
0.0305099540997482,0.029577335415476424,-0.016254211354451008,0.03280287,0.02243214,-0.0034600156,0.10142155,-0.023278823,0.9945711,0.9948436,0.0023732118,-0.10139378,0.0,-0.99972624,-0.023399483,0.8547299926757812,-0.13646949462890623,8.327033374023436,6.4387727,-0.61127347,63.115765,0.019958496
0.02997702913730719,0.031042879062189218,-0.014522205226517705,0.03280287,0.02243214,-0.0034600156,0.10142155,-0.023278823,0.9945711,0.9948436,0.0023732118,-0.10139378,0.0,-0.99972624,-0.023399483,0.8379705810546875,-0.18435352783203124,8.310273962402343,6.4554462,-0.61127347,63.281116,0.019897461
0.03290811643073278,0.029843797896696934,-0.014788667707738212,0.03280287,0.02243214,-0.0034600156,0.10142155,-0.023278823,0.9945711,0.9948436,0.0023732118,-0.10139378,0.0,-0.99972624,-0.023399483,0.8499415893554687,-0.16519991455078123,8.288726147460936,6.4723577,-0.61127347,63.44604,0.019897461
0.0287779479718149,0.03144257278401998,-0.013589586542245924,0.03280287,0.02243214,-0.0034600156,0.10142155,-0.023278823,0.9945711,0.9948436,0.0023732118,-0.10139378,0.0,-0.99972624,-0.023399483,0.8451531860351562,-0.17238251953125,8.245630517578125,6.489226,-0.61127347,63.61061,0.019958496
0.0334410413931738,0.027845329287543123,-0.014921898948348467,0.03280287,0.02243214,-0.0034600156,0.10142155,-0.023278823,0.9945711,0.9948436,0.0023732118,-0.10139378,0.0,-0.99972624,-0.023399483,0.8475473876953125,-0.22266075439453123,8.226476904296874,6.5061417,-0.6157175,63.7748,0.019958496
0.03317457891195329,0.0305099540997482,-0.012656967857974145,0.03280287,0.02243214,-0.0034600156,0.10142155,-0.023278823,0.9945711,0.9948436,0.0023732118,-0.10139378,0.0,-0.99972624,-0.023399483,0.842758984375,-0.17238251953125,8.346186987304687,6.5229106,-0.6157175,63.94087,0.019897461
0.03290811643073278,0.027578866806322613,-0.01732006127933304,0.03280287,0.02243214,-0.0034600156,0.10142155,-0.023278823,0.9945711,0.9948436,0.0023732118,-0.10139378,0.0,-0.99972624,-0.023399483,0.8451531860351562,-0.2154781494140625,8.231265307617187,6.540191,-0.6201233,64.10917,0.020446777
0.03130934154340973,0.029577335415476424,-0.013989280264076687,0.03280287,0.02243214,-0.0034600156,0.10142155,-0.023278823,0.9945711,0.9948436,0.0023732118,-0.10139378,0.0,-0.99972624,-0.023399483,0.8595183959960937,-0.18914193115234373,8.267178332519531,6.557346,-0.6201233,64.27417,0.019958496
0.031176110302799476,0.029310872934255914,-0.016520673835671518,0.03280287,0.02243214,-0.0034600156,0.10142155,-0.023278823,0.9945711,0.9948436,0.0023732118,-0.10139378,0.0,-0.99972624,-0.023399483,0.8667010009765624,-0.16759411621093748,8.307879760742187,6.574697,-0.6201233,64.44049,0.020019531
