GyroX,GyroY,GyroZ,NoiseX,NoiseY,NoiseZ,ExpGravityX,ExpGravityY,ExpGravityZ,ExpOxX,ExpOxY,ExpOxZ,ExpOyX,ExpOyY,ExpOyZ,AccX,AccY,AccZ,ExpSpeedX,ExpSpeedY,ExpSpeedZ,dT
-0.08100459429103453,0.0057289433462409285,0.0,-0.07802821,0.013003366,-0.00028777958,0.033768497,0.007410467,0.9994023,0.9994297,-0.00025038313,-0.03376757,-2.9103827e-11,-0.9999725,0.007414695,0.47165772705078124,0.1197100830078125,11.214440576171874,0.00213029,0.0,0.05065116,0.0045166016
-0.07927258816310122,0.0039969372183076245,-0.002264931090374321,-0.07802821,0.013003366,-0.00028777958,0.033768497,0.007410467,0.9994023,0.9994297,-0.00025038313,-0.03376757,-2.9103827e-11,-0.9999725,0.007414695,0.39264907226562495,0.10773907470703124,11.202469567871093,0.0079299165,0.0,0.21611732,0.014770508
-0.07847320071943971,0.010125574286379316,0.0014655436467127959,-0.07802821,0.013003366,-0.00028777958,0.033768497,0.007410467,0.9994023,0.9994297,-0.00025038313,-0.03376757,-2.9103827e-11,-0.9999725,0.007414695,0.40940848388671874,0.09337386474609374,11.233594189453123,0.013977088,0.0,0.3820432,0.014770508
-0.07967228188493199,0.008260336917835759,-0.002398162330984575,-0.07802821,0.013003366,-0.00028777958,0.033768497,0.007410467,0.9994023,0.9994297,-0.00025038313,-0.03376757,-2.9103827e-11,-0.9999725,0.007414695,0.32561142578124996,0.08140285644531249,11.322179650878905,0.018786535,0.0,0.54927754,0.014770508
-0.08540122523117291,0.007993874436615249,-0.0014655436467127959,-0.07802821,0.013003366,-0.00028777958,0.033768497,0.007410467,0.9994023,0.9994297,-0.00025038313,-0.03376757,-2.9103827e-11,-0.9999725,0.007414695,0.373495458984375,0.016759411621093748,11.250353601074218,0.02425766,0.0,0.71407765,0.0146484375
-0.08366921910323963,0.005462480865020421,0.0006661562030512709,-0.07802821,0.013003366,-0.00028777958,0.033768497,0.007410467,0.9994023,0.9994297,-0.00025038313,-0.03376757,-2.9103827e-11,-0.9999725,0.007414695,0.354341845703125,0.0909796630859375,11.166556542968749,0.02949147,0.0,0.87901336,0.014770508
-0.08260336917835759,0.011591117933092112,0.0035972434964768626,-0.07802821,0.013003366,-0.00028777958,0.033768497,0.007410467,0.9994023,0.9994297,-0.00025038313,-0.03376757,-2.9103827e-11,-0.9999725,0.007414695,0.3711012573242187,0.17477672119140625,11.245565197753905,0.034972824,0.0,1.0451161,0.014770508
-0.08233690669713707,0.00985911180515881,0.0029310872934255917,-0.07802821,0.013003366,-0.00028777958,0.033768497,0.007410467,0.9994023,0.9994297,-0.00025038313,-0.03376757,-2.9103827e-11,-0.9999725,0.007414695,0.3758896606445312,0.09816226806640624,11.413159313964844,0.040524904,0.0,1.2136942,0.014770508
-0.08393568158446013,0.01052526800821008,0.0030643185340358454,-0.07802821,0.013003366,-0.00028777958,0.033768497,0.007410467,0.9994023,0.9994297,-0.00025038313,-0.03376757,-2.9103827e-11,-0.9999725,0.007414695,0.3758896606445312,0.06464344482421874,11.259930407714844,0.0460311,0.0,1.3786346,0.0146484375
-0.080205206847373,0.00985911180515881,0.0011990811654922875,-0.07802821,0.013003366,-0.00028777958,0.033768497,0.007410467,0.9994023,0.9994297,-0.00025038313,-0.03376757,-2.9103827e-11,-0.9999725,0.007414695,0.430956298828125,0.016759411621093748,11.180921752929686,0.052343935,0.0,1.5424176,0.0146484375
-0.08153751925347555,0.006261868308681946,-0.0019984686091538122,-0.07802821,0.013003366,-0.00028777958,0.033768497,0.007410467,0.9994023,0.9994297,-0.00025038313,-0.03376757,-2.9103827e-11,-0.9999725,0.007414695,0.34715924072265625,0.0909796630859375,11.238382592773437,0.05747165,0.0,1.7084143,0.014770508
-0.08420214406568063,0.007993874436615249,0.000799387443661525,-0.07802821,0.013003366,-0.00028777958,0.033768497,0.007410467,0.9994023,0.9994297,-0.00025038313,-0.03376757,-2.9103827e-11,-0.9999725,0.007414695,0.4525041137695312,0.08379705810546874,11.274295617675781,0.06410013,0.0,1.8735651,0.0146484375
-0.0816707504940858,0.0074609494741742334,0.0002664624812205083,-0.07802821,0.013003366,-0.00028777958,0.033768497,0.007410467,0.9994023,0.9994297,-0.00025038313,-0.03376757,-2.9103827e-11,-0.9999725,0.007414695,0.430956298828125,0.09337386474609374,11.113884106445312,0.07046557,0.0,2.0377228,0.014770508
-0.08220367545652682,0.0074609494741742334,0.002531393571594829,-0.07802821,0.013003366,-0.00028777958,0.033768497,0.007410467,0.9994023,0.9994297,-0.00025038313,-0.03376757,-2.9103827e-11,-0.9999725,0.007414695,0.37828386230468747,0.12689268798828124,11.145008728027342,0.07600684,0.0,2.2009797,0.0146484375
-0.08406891282507037,0.011457886692481857,-0.0014655436467127959,-0.07802821,0.013003366,-0.00028777958,0.033768497,0.007410467,0.9994023,0.9994297,-0.00025038313,-0.03376757,-2.9103827e-11,-0.9999725,0.007414695,0.37828386230468747,0.06703764648437499,11.161768139648437,0.08159428,0.0,2.3658447,0.014770508
-0.08247013793774732,0.0075941807147844875,0.0026646248122050836,-0.07802821,0.013003366,-0.00028777958,0.033768497,0.007410467,0.9994023,0.9994297,-0.00025038313,-0.03376757,-2.9103827e-11,-0.9999725,0.007414695,0.35194764404296874,0.0526724365234375,11.322179650878905,0.08679273,0.0,2.5330791,0.014770508
-0.0816707504940858,0.009326186842717792,-0.0021316998497640663,-0.07802821,0.013003366,-0.00028777958,0.033768497,0.007410467,0.9994023,0.9994297,-0.00025038313,-0.03376757,-2.9103827e-11,-0.9999725,0.007414695,0.42377369384765623,0.13407529296874998,11.228805786132812,0.09305208,0.0,2.6989343,0.014770508
-0.0816707504940858,0.008127105677225504,-0.0010658499248820332,-0.07802821,0.013003366,-0.00028777958,0.033768497,0.007410467,0.9994023,0.9994297,-0.00025038313,-0.03376757,-2.9103827e-11,-0.9999725,0.007414695,0.4070142822265625,0.05746083984375,11.228805786132812,0.09901421,0.0,2.8634188,0.0146484375
-0.08446860654690114,0.007061255752343471,-0.0005329249624410166,-0.07802821,0.013003366,-0.00028777958,0.033768497,0.007410467,0.9994023,0.9994297,-0.00025038313,-0.03376757,-2.9103827e-11,-0.9999725,0.007414695,0.37828386230468747,0.11252747802734374,11.171344946289063,0.10455547,0.0,3.0270615,0.0146484375
-0.08193721297530632,0.007727411955394742,-0.000799387443661525,-0.07802821,0.013003366,-0.00028777958,0.033768497,0.007410467,0.9994023,0.9994297,-0.00025038313,-0.03376757,-2.9103827e-11,-0.9999725,0.007414695,0.3495534423828125,0.07900865478515624,11.3006318359375,0.109675884,0.0,3.192598,0.0146484375
-0.08193721297530632,0.009459418083328047,0.0006661562030512709,-0.07802821,0.013003366,-0.00028777958,0.033768497,0.007410467,0.9994023,0.9994297,-0.00025038313,-0.03376757,-2.9103827e-11,-0.9999725,0.007414695,0.38307226562499996,0.01915361328125,11.233594189453123,0.11533406,0.0,3.358524,0.014770508
-0.0846018377875114,0.00985911180515881,0.0003996937218307625,-0.07802821,0.013003366,-0.00028777958,0.033768497,0.007410467,0.9994023,0.9994297,-0.00025038313,-0.03376757,-2.9103827e-11,-0.9999725,0.007414695,0.39983167724609375,0.0383072265625,11.262324609375,0.121190965,0.0,3.5234995,0.0146484375
-0.08526799399056267,0.010392036767599824,-0.0010658499248820332,-0.07802821,0.013003366,-0.00028777958,0.033768497,0.007410467,0.9994023,0.9994297,-0.00025038313,-0.03376757,-2.9103827e-11,-0.9999725,0.007414695,0.35673604736328124,0.05027823486328125,11.25514200439453,0.1264166,0.0,3.6883698,0.0146484375
-0.08433537530629089,0.011990811654922875,-0.0009326186842717792,-0.07802821,0.013003366,-0.00028777958,0.033768497,0.007410467,0.9994023,0.9994297,-0.00025038313,-0.03376757,-2.9103827e-11,-0.9999725,0.007414695,0.40940848388671874,0.10773907470703124,11.195286962890624,0.13256373,0.0,3.856463,0.015014648
-0.08433537530629089,0.011591117933092112,-0.0006661562030512709,-0.07802821,0.013003366,-0.00028777958,0.033768497,0.007410467,0.9994023,0.9994297,-0.00025038313,-0.03376757,-2.9103827e-11,-0.9999725,0.007414695,0.373495458984375,0.11013327636718749,11.231199987792968,0.13808045,0.0,4.0223536,0.014770508
-0.08380245034384987,0.008526799399056265,-0.002797856052815337,-0.07802821,0.013003366,-0.00028777958,0.033768497,0.007410467,0.9994023,0.9994297,-0.00025038313,-0.03376757,-2.9103827e-11,-0.9999725,0.007414695,0.3447650390625,0.11013327636718749,11.180921752929686,0.14313072,0.0,4.1861367,0.0146484375
-0.08100459429103453,0.00866003063966652,0.0033307810152563544,-0.07802821,0.013003366,-0.00028777958,0.033768497,0.007410467,0.9994023,0.9994297,-0.00025038313,-0.03376757,-2.9103827e-11,-0.9999725,0.007414695,0.3711012573242187,0.08140285644531249,11.233594189453123,0.14856677,0.0,4.3506913,0.0146484375
-0.08273660041896783,0.007194486992953725,0.0021316998497640663,-0.07802821,0.013003366,-0.00028777958,0.033768497,0.007410467,0.9994023,0.9994297,-0.00025038313,-0.03376757,-2.9103827e-11,-0.9999725,0.007414695,0.41898529052734373,0.047884033203124995,11.166556542968749,0.1547554,0.0,4.515627,0.014770508
-0.08207044421591657,0.005196018383799912,0.0019984686091538122,-0.07802821,0.013003366,-0.00028777958,0.033768497,0.007410467,0.9994023,0.9994297,-0.00025038313,-0.03376757,-2.9103827e-11,-0.9999725,0.007414695,0.40940848388671874,0.09576806640624999,11.305420239257812,0.1607526,0.0,4.681234,0.0146484375
-0.08127105677225505,0.009459418083328047,0.002797856052815337,-0.07802821,0.013003366,-0.00028777958,0.033768497,0.007410467,0.9994023,0.9994297,-0.00025038313,-0.03376757,-2.9103827e-11,-0.9999725,0.007414695,0.3806780639648437,0.04548983154296875,11.183315954589844,0.1663754,0.0,4.846417,0.014770508
-0.08513476274995241,0.008127105677225504,-0.001732006127933304,-0.07802821,0.013003366,-0.00028777958,0.033768497,0.007410467,0.9994023,0.9994297,-0.00025038313,-0.03376757,-2.9103827e-11,-0.9999725,0.007414695,0.3447650390625,0.08858546142578125,11.298237634277344,0.17146775,0.0,5.0132976,0.014770508
-0.08366921910323963,0.011058192970651094,0.000799387443661525,-0.07802821,0.013003366,-0.00028777958,0.033768497,0.007410467,0.9994023,0.9994297,-0.00025038313,-0.03376757,-2.9103827e-11,-0.9999725,0.007414695,0.36631285400390623,0.06703764648437499,11.252747802734374,0.17683366,0.0,5.1781325,0.0146484375
-0.0846018377875114,0.01372281778285618,0.0018652373685435584,-0.07802821,0.013003366,-0.00028777958,0.033768497,0.007410467,0.9994023,0.9994297,-0.00025038313,-0.03376757,-2.9103827e-11,-0.9999725,0.007414695,0.3854664672851562,0.09337386474609374,11.2240173828125,0.1825272,0.0,5.343917,0.014770508
-0.08420214406568063,0.01052526800821008,0.00013323124061025415,-0.07802821,0.013003366,-0.00028777958,0.033768497,0.007410467,0.9994023,0.9994297,-0.00025038313,-0.03376757,-2.9103827e-11,-0.9999725,0.007414695,0.35673604736328124,0.0909796630859375,11.209652172851563,0.18775283,0.0,5.508121,0.0146484375
-0.0816707504940858,0.008393568158446012,-0.0019984686091538122,-0.07802821,0.013003366,-0.00028777958,0.033768497,0.007410467,0.9994023,0.9994297,-0.00025038313,-0.03376757,-2.9103827e-11,-0.9999725,0.007414695,0.40940848388671874,0.04548983154296875,11.228805786132812,0.19375002,0.0,5.6726055,0.0146484375
-0.08326952538140886,0.008127105677225504,0.0003996937218307625,-0.07802821,0.013003366,-0.00028777958,0.033768497,0.007410467,0.9994023,0.9994297,-0.00025038313,-0.03376757,-2.9103827e-11,-0.9999725,0.007414695,0.3591302490234375,0.09576806640624999,11.269507214355468,0.19905455,0.0,5.8390617,0.014770508
-0.07980551312554225,0.0095926493239383,0.00013323124061025415,-0.07802821,0.013003366,-0.00028777958,0.033768497,0.007410467,0.9994023,0.9994297,-0.00025038313,-0.03376757,-2.9103827e-11,-0.9999725,0.007414695,0.296881005859375,0.04548983154296875,11.310208642578125,0.2034034,0.0,6.004739,0.0146484375
-0.08180398173469605,0.0075941807147844875,0.00013323124061025415,-0.07802821,0.013003366,-0.00028777958,0.033768497,0.007410467,0.9994023,0.9994297,-0.00025038313,-0.03376757,-2.9103827e-11,-0.9999725,0.007414695,0.32082302246093747,0.1005564697265625,11.209652172851563,0.20810296,0.0,6.168943,0.0146484375
-0.08233690669713707,0.008127105677225504,0.0019984686091538122,-0.07802821,0.013003366,-0.00028777958,0.033768497,0.007410467,0.9994023,0.9994297,-0.00025038313,-0.03376757,-2.9103827e-11,-0.9999725,0.007414695,0.38786066894531246,0.062249243164062495,11.168950744628905,0.21378452,0.0,6.3325505,0.0146484375
-0.08273660041896783,0.009992343045769061,-0.001732006127933304,-0.07802821,0.013003366,-0.00028777958,0.033768497,0.007410467,0.9994023,0.9994297,-0.00025038313,-0.03376757,-2.9103827e-11,-0.9999725,0.007414695,0.44532150878906246,0.1005564697265625,11.231199987792968,0.22047086,0.0,6.501183,0.015014648
-0.08220367545652682,0.006928024511733216,0.0,-0.07802821,0.013003366,-0.00028777958,0.033768497,0.007410467,0.9994023,0.9994297,-0.00025038313,-0.03376757,-2.9103827e-11,-0.9999725,0.007414695,0.3591302490234375,0.0526724365234375,11.21683477783203,0.22573155,0.0,6.665492,0.0146484375
-0.08326952538140886,0.00866003063966652,0.0030643185340358454,-0.07802821,0.013003366,-0.00028777958,0.033768497,0.007410467,0.9994023,0.9994297,-0.00025038313,-0.03376757,-2.9103827e-11,-0.9999725,0.007414695,0.30885201416015623,0.10773907470703124,11.245565197753905,0.23029345,0.0,6.831595,0.014770508
-0.0814042880128653,0.009459418083328047,-0.001732006127933304,-0.07802821,0.013003366,-0.00028777958,0.033768497,0.007410467,0.9994023,0.9994297,-0.00025038313,-0.03376757,-2.9103827e-11,-0.9999725,0.007414695,0.36631285400390623,0.0909796630859375,11.209652172851563,0.23565936,0.0,6.995799,0.0146484375
-0.08153751925347555,0.013056661579804908,0.0003996937218307625,-0.07802821,0.013003366,-0.00028777958,0.033768497,0.007410467,0.9994023,0.9994297,-0.00025038313,-0.03376757,-2.9103827e-11,-0.9999725,0.007414695,0.35194764404296874,0.1292868896484375,11.164162341308593,0.24081485,0.0,7.1593366,0.0146484375
-0.0863338439154447,0.006661562030512709,-0.0009326186842717792,-0.07802821,0.013003366,-0.00028777958,0.033768497,0.007410467,0.9994023,0.9994297,-0.00025038313,-0.03376757,-2.9103827e-11,-0.9999725,0.007414695,0.3447650390625,0.16998831787109375,11.18571015625,0.24586512,0.0,7.3231897,0.0146484375
-0.08446860654690114,0.007860643196004996,0.000799387443661525,-0.07802821,0.013003366,-0.00028777958,0.033768497,0.007410467,0.9994023,0.9994297,-0.00025038313,-0.03376757,-2.9103827e-11,-0.9999725,0.007414695,0.3184288208007812,0.05027823486328125,11.166556542968749,0.25056848,0.0,7.4881253,0.014770508
-0.0816707504940858,0.008260336917835759,0.0031975497746461,-0.07802821,0.013003366,-0.00028777958,0.033768497,0.007410467,0.9994023,0.9994297,-0.00025038313,-0.03376757,-2.9103827e-11,-0.9999725,0.007414695,0.411802685546875,0.062249243164062495,11.209652172851563,0.25660074,0.0,7.6523294,0.0146484375
-0.07980551312554225,0.010125574286379316,-0.000799387443661525,-0.07802821,0.013003366,-0.00028777958,0.033768497,0.007410467,0.9994023,0.9994297,-0.00025038313,-0.03376757,-2.9103827e-11,-0.9999725,0.007414695,0.3950432739257812,0.05985504150390625,11.204863769531249,0.2623875,0.0,7.816463,0.0146484375
-0.07967228188493199,0.013056661579804908,-0.0013323124061025418,-0.07802821,0.013003366,-0.00028777958,0.033768497,0.007410467,0.9994023,0.9994297,-0.00025038313,-0.03376757,-2.9103827e-11,-0.9999725,0.007414695,0.3806780639648437,0.09337386474609374,11.250353601074218,0.26801032,0.0,7.9826365,0.014770508
-0.08433537530629089,0.007860643196004996,-0.0019984686091538122,-0.07802821,0.013003366,-0.00028777958,0.033768497,0.007410467,0.9994023,0.9994297,-0.00025038313,-0.03376757,-2.9103827e-11,-0.9999725,0.007414695,0.3495534423828125,0.13407529296874998,11.33175645751953,0.2731734,0.0,8.150012,0.014770508
-0.08446860654690114,0.007993874436615249,-0.0030643185340358454,-0.07802821,0.013003366,-0.00028777958,0.033768497,0.007410467,0.9994023,0.9994297,-0.00025038313,-0.03376757,-2.9103827e-11,-0.9999725,0.007414695,0.37828386230468747,0.0526724365234375,11.219228979492186,0.27871466,0.0,8.314356,0.0146484375
-0.08180398173469605,0.0031975497746461,0.0035972434964768626,-0.07802821,0.013003366,-0.00028777958,0.033768497,0.007410467,0.9994023,0.9994297,-0.00025038313,-0.03376757,-2.9103827e-11,-0.9999725,0.007414695,0.40462008056640625,0.12210428466796874,11.173739147949219,0.2846417,0.0,8.478034,0.0146484375
-0.0866003063966652,0.007860643196004996,0.0010658499248820332,-0.07802821,0.013003366,-0.00028777958,0.033768497,0.007410467,0.9994023,0.9994297,-0.00025038313,-0.03376757,-2.9103827e-11,-0.9999725,0.007414695,0.3591302490234375,0.055066638183593745,11.247959399414063,0.28994626,0.0,8.644172,0.014770508
-0.08073813180981403,0.006661562030512709,0.0031975497746461,-0.07802821,0.013003366,-0.00028777958,0.033768497,0.007410467,0.9994023,0.9994297,-0.00025038313,-0.03376757,-2.9103827e-11,-0.9999725,0.007414695,0.35673604736328124,0.062249243164062495,11.209652172851563,0.2951719,0.0,8.808375,0.0146484375
-0.08380245034384987,0.010791730489430587,0.0010658499248820332,-0.07802821,0.013003366,-0.00028777958,0.033768497,0.007410467,0.9994023,0.9994297,-0.00025038313,-0.03376757,-2.9103827e-11,-0.9999725,0.007414695,0.3280056274414062,0.09576806640624999,11.257536206054686,0.3000167,0.0,8.974655,0.014770508
-0.08473506902812164,0.009326186842717792,0.0,-0.07802821,0.013003366,-0.00028777958,0.033768497,0.007410467,0.9994023,0.9994297,-0.00025038313,-0.03376757,-2.9103827e-11,-0.9999725,0.007414695,0.40940848388671874,0.04548983154296875,11.269507214355468,0.30601388,0.0,9.139736,0.0146484375
-0.08247013793774732,0.010924961730040842,0.002398162330984575,-0.07802821,0.013003366,-0.00028777958,0.033768497,0.007410467,0.9994023,0.9994297,-0.00025038313,-0.03376757,-2.9103827e-11,-0.9999725,0.007414695,0.33758243408203126,0.1388636962890625,11.269507214355468,0.31100014,0.0,9.306192,0.014770508
-0.08446860654690114,0.008793261880276773,0.0002664624812205083,-0.07802821,0.013003366,-0.00028777958,0.033768497,0.007410467,0.9994023,0.9994297,-0.00025038313,-0.03376757,-2.9103827e-11,-0.9999725,0.007414695,0.41898529052734373,0.0383072265625,11.166556542968749,0.31713763,0.0,9.469765,0.0146484375
-0.08393568158446013,0.0075941807147844875,-0.0014655436467127959,-0.07802821,0.013003366,-0.00028777958,0.033768497,0.007410467,0.9994023,0.9994297,-0.00025038313,-0.03376757,-2.9103827e-11,-0.9999725,0.007414695,0.3447650390625,0.12210428466796874,11.204863769531249,0.3221879,0.0,9.633899,0.0146484375
-0.08406891282507037,0.00985911180515881,-0.002398162330984575,-0.07802821,0.013003366,-0.00028777958,0.033768497,0.007410467,0.9994023,0.9994297,-0.00025038313,-0.03376757,-2.9103827e-11,-0.9999725,0.007414695,0.33758243408203126,0.076614453125,11.2240173828125,0.32713297,0.0,9.798313,0.0146484375
-0.08700000011849597,0.011457886692481857,0.0014655436467127959,-0.07802821,0.013003366,-0.00028777958,0.033768497,0.007410467,0.9994023,0.9994297,-0.00025038313,-0.03376757,-2.9103827e-11,-0.9999725,0.007414695,0.354341845703125,0.0430956298828125,11.317391247558593,0.33232352,0.0,9.964095,0.0146484375
-0.08326952538140886,0.01185758041431262,-0.00013323124061025415,-0.07802821,0.013003366,-0.00028777958,0.033768497,0.007410467,0.9994023,0.9994297,-0.00025038313,-0.03376757,-2.9103827e-11,-0.9999725,0.007414695,0.35673604736328124,0.09337386474609374,11.257536206054686,0.33754915,0.0,10.129001,0.0146484375
-0.08260336917835759,0.009725880564548555,0.000799387443661525,-0.07802821,0.013003366,-0.00028777958,0.033768497,0.007410467,0.9994023,0.9994297,-0.00025038313,-0.03376757,-2.9103827e-11,-0.9999725,0.007414695,0.3806780639648437,0.05985504150390625,11.17852755126953,0.34317195,0.0,10.294113,0.014770508
-0.08286983165957809,0.007993874436615249,-0.00013323124061025415,-0.07802821,0.013003366,-0.00028777958,0.033768497,0.007410467,0.9994023,0.9994297,-0.00025038313,-0.03376757,-2.9103827e-11,-0.9999725,0.007414695,0.40940848388671874,0.07900865478515624,11.307814440917968,0.34916914,0.0,10.459755,0.0146484375
-0.08193721297530632,0.011058192970651094,0.0,-0.07802821,0.013003366,-0.00028777958,0.033768497,0.007410467,0.9994023,0.9994297,-0.00025038313,-0.03376757,-2.9103827e-11,-0.9999725,0.007414695,0.34715924072265625,0.09576806640624999,11.219228979492186,0.35425448,0.0,10.624099,0.0146484375
-0.08620061267483445,0.0073277182335639785,-0.0019984686091538122,-0.07802821,0.013003366,-0.00028777958,0.033768497,0.007410467,0.9994023,0.9994297,-0.00025038313,-0.03376757,-2.9103827e-11,-0.9999725,0.007414695,0.44053310546874996,0.09816226806640624,11.156979736328124,0.3607076,0.0,10.787531,0.0146484375
-0.08513476274995241,0.011990811654922875,0.0005329249624410166,-0.07802821,0.013003366,-0.00028777958,0.033768497,0.007410467,0.9994023,0.9994297,-0.00025038313,-0.03376757,-2.9103827e-11,-0.9999725,0.007414695,0.3687070556640625,0.14125789794921875,11.238382592773437,0.3661536,0.0,10.953527,0.014770508
-0.07927258816310122,0.008260336917835759,0.0,-0.07802821,0.013003366,-0.00028777958,0.033768497,0.007410467,0.9994023,0.9994297,-0.00025038313,-0.03376757,-2.9103827e-11,-0.9999725,0.007414695,0.36391865234375,0.076614453125,11.21683477783203,0.37148443,0.0,11.117837,0.0146484375
-0.08286983165957809,0.008793261880276773,-0.00013323124061025415,-0.07802821,0.013003366,-0.00028777958,0.033768497,0.007410467,0.9994023,0.9994297,-0.00025038313,-0.03376757,-2.9103827e-11,-0.9999725,0.007414695,0.373495458984375,0.086191259765625,11.295843432617186,0.37695554,0.0,11.283303,0.0146484375
-0.08247013793774732,0.00866003063966652,-0.0003996937218307625,-0.07802821,0.013003366,-0.00028777958,0.033768497,0.007410467,0.9994023,0.9994297,-0.00025038313,-0.03376757,-2.9103827e-11,-0.9999725,0.007414695,0.3711012573242187,0.076614453125,11.161768139648437,0.3823916,0.0,11.446806,0.0146484375
-0.08353598786262936,0.008393568158446012,0.002531393571594829,-0.07802821,0.013003366,-0.00028777958,0.033768497,0.007410467,0.9994023,0.9994297,-0.00025038313,-0.03376757,-2.9103827e-11,-0.9999725,0.007414695,0.38786066894531246,0.1197100830078125,11.231199987792968,0.38807315,0.0,11.611325,0.0146484375
-0.08300306290018834,0.006794793271122962,0.0,-0.07802821,0.013003366,-0.00028777958,0.033768497,0.007410467,0.9994023,0.9994297,-0.00025038313,-0.03376757,-2.9103827e-11,-0.9999725,0.007414695,0.430956298828125,0.06703764648437499,11.238382592773437,0.3944386,0.0,11.777322,0.014770508
-0.08153751925347555,0.011591117933092112,-0.0026646248122050836,-0.07802821,0.013003366,-0.00028777958,0.033768497,0.007410467,0.9994023,0.9994297,-0.00025038313,-0.03376757,-2.9103827e-11,-0.9999725,0.007414695,0.3399766357421875,0.11252747802734374,11.238382592773437,0.39946023,0.0,11.943318,0.014770508
-0.08420214406568063,0.011724349173702367,0.0010658499248820332,-0.07802821,0.013003366,-0.00028777958,0.033768497,0.007410467,0.9994023,0.9994297,-0.00025038313,-0.03376757,-2.9103827e-11,-0.9999725,0.007414695,0.4740519287109375,0.062249243164062495,11.168950744628905,0.40640435,0.0,12.106926,0.0146484375
-0.08273660041896783,0.009059724361497283,0.000799387443661525,-0.07802821,0.013003366,-0.00028777958,0.033768497,0.007410467,0.9994023,0.9994297,-0.00025038313,-0.03376757,-2.9103827e-11,-0.9999725,0.007414695,0.37828386230468747,0.07900865478515624,11.212046374511718,0.4119918,0.0,12.272533,0.014770508
-0.08100459429103453,0.007061255752343471,0.0019984686091538122,-0.07802821,0.013003366,-0.00028777958,0.033768497,0.007410467,0.9994023,0.9994297,-0.00025038313,-0.03376757,-2.9103827e-11,-0.9999725,0.007414695,0.354341845703125,0.10295067138671875,11.291055029296874,0.41718236,0.0,12.43793,0.0146484375
-0.08300306290018834,0.0095926493239383,0.0009326186842717792,-0.07802821,0.013003366,-0.00028777958,0.033768497,0.007410467,0.9994023,0.9994297,-0.00025038313,-0.03376757,-2.9103827e-11,-0.9999725,0.007414695,0.38307226562499996,0.06703764648437499,11.209652172851563,0.42279378,0.0,12.602134,0.0146484375
-0.08326952538140886,0.006128637068071691,-0.0018652373685435584,-0.07802821,0.013003366,-0.00028777958,0.033768497,0.007410467,0.9994023,0.9994297,-0.00025038313,-0.03376757,-2.9103827e-11,-0.9999725,0.007414695,0.36152445068359373,0.11731588134765625,11.279084020996093,0.42813367,0.0,12.768731,0.014770508
-0.08353598786262936,0.007860643196004996,0.0002664624812205083,-0.07802821,0.013003366,-0.00028777958,0.033768497,0.007410467,0.9994023,0.9994297,-0.00025038313,-0.03376757,-2.9103827e-11,-0.9999725,0.007414695,0.35673604736328124,0.028730419921875,11.329362255859374,0.4333593,0.0,12.934689,0.0146484375
-0.08366921910323963,0.0095926493239383,-0.0003996937218307625,-0.07802821,0.013003366,-0.00028777958,0.033768497,0.007410467,0.9994023,0.9994297,-0.00025038313,-0.03376757,-2.9103827e-11,-0.9999725,0.007414695,0.39264907226562495,0.05027823486328125,11.2240173828125,0.439111,0.0,13.099103,0.0146484375
-0.08207044421591657,0.01212404289553313,-0.0003996937218307625,-0.07802821,0.013003366,-0.00028777958,0.033768497,0.007410467,0.9994023,0.9994297,-0.00025038313,-0.03376757,-2.9103827e-11,-0.9999725,0.007414695,0.411802685546875,0.05746083984375,11.298237634277344,0.44514325,0.0,13.264605,0.0146484375
-0.08180398173469605,0.009459418083328047,0.00159877488732305,-0.07802821,0.013003366,-0.00028777958,0.033768497,0.007410467,0.9994023,0.9994297,-0.00025038313,-0.03376757,-2.9103827e-11,-0.9999725,0.007414695,0.3950432739257812,0.11252747802734374,11.319785449218749,0.45093003,0.0,13.430422,0.0146484375
-0.08540122523117291,0.008526799399056265,0.0030643185340358454,-0.07802821,0.013003366,-0.00028777958,0.033768497,0.007410467,0.9994023,0.9994297,-0.00025038313,-0.03376757,-2.9103827e-11,-0.9999725,0.007414695,0.40222587890625,0.076614453125,11.161768139648437,0.45687112,0.0,13.595286,0.014770508
-0.0860673814342242,0.008793261880276773,-0.0010658499248820332,-0.07802821,0.013003366,-0.00028777958,0.033768497,0.007410467,0.9994023,0.9994297,-0.00025038313,-0.03376757,-2.9103827e-11,-0.9999725,0.007414695,0.38307226562499996,0.11252747802734374,11.250353601074218,0.46248254,0.0,13.760086,0.0146484375
-0.08220367545652682,0.006128637068071691,0.00479632466196915,-0.07802821,0.013003366,-0.00028777958,0.033768497,0.007410467,0.9994023,0.9994297,-0.00025038313,-0.03376757,-2.9103827e-11,-0.9999725,0.007414695,0.3902548706054687,0.031124621582031248,11.274295617675781,0.46824682,0.0,13.926613,0.014770508
-0.0834027566220191,0.009992343045769061,0.0005329249624410166,-0.07802821,0.013003366,-0.00028777958,0.033768497,0.007410467,0.9994023,0.9994297,-0.00025038313,-0.03376757,-2.9103827e-11,-0.9999725,0.007414695,0.35194764404296874,0.08858546142578125,11.281478222656249,0.47344527,0.0,14.093246,0.014770508
-0.08033843808798326,0.009326186842717792,0.002264931090374321,-0.07802821,0.013003366,-0.00028777958,0.033768497,0.007410467,0.9994023,0.9994297,-0.00025038313,-0.03376757,-2.9103827e-11,-0.9999725,0.007414695,0.40940848388671874,0.062249243164062495,11.267113012695312,0.47959238,0.0,14.262418,0.015014648
-0.08620061267483445,0.003863705977697371,0.002264931090374321,-0.07802821,0.013003366,-0.00028777958,0.033768497,0.007410467,0.9994023,0.9994297,-0.00025038313,-0.03376757,-2.9103827e-11,-0.9999725,0.007414695,0.3758896606445312,0.1292868896484375,11.226411584472656,0.48509857,0.0,14.4268675,0.0146484375
-0.0834027566220191,0.010125574286379316,-0.000799387443661525,-0.07802821,0.013003366,-0.00028777958,0.033768497,0.007410467,0.9994023,0.9994297,-0.00025038313,-0.03376757,-2.9103827e-11,-0.9999725,0.007414695,0.36152445068359373,0.11731588134765625,11.197681164550781,0.49043846,0.0,14.592263,0.014770508
-0.08366921910323963,0.009725880564548555,0.0033307810152563544,-0.07802821,0.013003366,-0.00028777958,0.033768497,0.007410467,0.9994023,0.9994297,-0.00025038313,-0.03376757,-2.9103827e-11,-0.9999725,0.007414695,0.35194764404296874,0.09816226806640624,11.281478222656249,0.4956369,0.0,14.758897,0.014770508
-0.08247013793774732,0.004663093421358896,-0.0029310872934255917,-0.07802821,0.013003366,-0.00028777958,0.033768497,0.007410467,0.9994023,0.9994297,-0.00025038313,-0.03376757,-2.9103827e-11,-0.9999725,0.007414695,0.40222587890625,0.105344873046875,11.238382592773437,0.5015289,0.0,14.923522,0.0146484375
-0.08593415019361393,0.0063950995492922,0.0018652373685435584,-0.07802821,0.013003366,-0.00028777958,0.033768497,0.007410467,0.9994023,0.9994297,-0.00025038313,-0.03376757,-2.9103827e-11,-0.9999725,0.007414695,0.3591302490234375,0.076614453125,11.276689819335937,0.5067896,0.0,15.088708,0.0146484375
-0.08153751925347555,0.009459418083328047,0.0013323124061025418,-0.07802821,0.013003366,-0.00028777958,0.033768497,0.007410467,0.9994023,0.9994297,-0.00025038313,-0.03376757,-2.9103827e-11,-0.9999725,0.007414695,0.373495458984375,0.06703764648437499,11.204863769531249,0.51230633,0.0,15.2542095,0.014770508
-0.08087136305042428,0.009192955602107537,0.00159877488732305,-0.07802821,0.013003366,-0.00028777958,0.033768497,0.007410467,0.9994023,0.9994297,-0.00025038313,-0.03376757,-2.9103827e-11,-0.9999725,0.007414695,0.3591302490234375,0.055066638183593745,11.312602844238281,0.51756704,0.0,15.419922,0.0146484375
-0.08566768771239343,0.00985911180515881,-0.0006661562030512709,-0.07802821,0.013003366,-0.00028777958,0.033768497,0.007410467,0.9994023,0.9994297,-0.00025038313,-0.03376757,-2.9103827e-11,-0.9999725,0.007414695,0.3591302490234375,0.06464344482421874,11.262324609375,0.52282774,0.0,15.584897,0.0146484375
-0.0846018377875114,0.008260336917835759,0.0018652373685435584,-0.07802821,0.013003366,-0.00028777958,0.033768497,0.007410467,0.9994023,0.9994297,-0.00025038313,-0.03376757,-2.9103827e-11,-0.9999725,0.007414695,0.3902548706054687,0.09576806640624999,11.271901416015623,0.52854437,0.0,15.750012,0.0146484375
-0.08127105677225505,0.00479632466196915,0.0013323124061025418,-0.07802821,0.013003366,-0.00028777958,0.033768497,0.007410467,0.9994023,0.9994297,-0.00025038313,-0.03376757,-2.9103827e-11,-0.9999725,0.007414695,0.4165910888671875,0.1005564697265625,11.257536206054686,0.53464675,0.0,15.914918,0.0146484375
-0.08260336917835759,0.008926493120887028,-0.0011990811654922875,-0.07802821,0.013003366,-0.00028777958,0.033768497,0.007410467,0.9994023,0.9994297,-0.00025038313,-0.03376757,-2.9103827e-11,-0.9999725,0.007414695,0.4381389038085937,0.05746083984375,11.252747802734374,0.54111826,0.0,16.081127,0.014770508
-0.07940581940371148,0.01185758041431262,0.00159877488732305,-0.07802821,0.013003366,-0.00028777958,0.033768497,0.007410467,0.9994023,0.9994297,-0.00025038313,-0.03376757,-2.9103827e-11,-0.9999725,0.007414695,0.3902548706054687,0.086191259765625,11.3006318359375,0.5468825,0.0,16.248043,0.014770508
-0.08513476274995241,0.009326186842717792,-0.0003996937218307625,-0.07802821,0.013003366,-0.00028777958,0.033768497,0.007410467,0.9994023,0.9994297,-0.00025038313,-0.03376757,-2.9103827e-11,-0.9999725,0.007414695,0.44532150878906246,0.06464344482421874,11.3389390625,0.55340576,0.0,16.41414,0.0146484375
-0.08220367545652682,0.0095926493239383,0.015454823910789483,-0.07802821,0.013003366,-0.00028777958,0.03377377,0.0073864,0.9994023,0.9994293,-0.00096263364,-0.03376757,-0.00071263744,-0.9999723,0.007414695,0.5267243652343749,1.149216796875,11.247959399414063,0.56112146,0.016834231,16.578905,0.0146484375
-0.09086370609619333,0.011591117933092112,0.29057733577096434,-0.07802821,0.013003366,-0.00028777958,0.03380746,0.0070288344,0.9994037,0.9994139,-0.005627676,-0.03376823,-0.005386968,-0.99995947,0.007214971,0.4860229370117187,0.9983820922851562,11.207257971191405,0.56824094,0.03145897,16.743074,0.0146484375
-0.08993108741192156,0.011058192970651094,0.47257121044457157,-0.07802821,0.013003366,-0.00028777958,0.0338572,0.0065870495,0.999405,0.99934614,-0.012922523,-0.033770036,-0.012692388,-0.9998948,0.0070202616,0.35673604736328124,0.3591302490234375,11.250353601074218,0.5735972,0.036851186,16.911995,0.015014648
-0.09486064331450096,0.012923430339194655,0.4740367540912843,-0.07802821,0.013003366,-0.00028777958,0.033900786,0.0060758437,0.9994068,0.99923354,-0.019792326,-0.033774585,-0.019575374,-0.99978566,0.006742161,0.2753331909179687,-0.26815058593749996,11.389217297363281,0.577664,0.032890465,17.08022,0.014770508
-0.07980551312554225,0.012257274136143382,0.40089280299625474,-0.07802821,0.013003366,-0.00028777958,0.033934508,0.005884595,0.9994068,0.99910605,-0.02542626,-0.033774585,-0.025212424,-0.9996594,0.006742161,0.3591302490234375,-0.3064578125,11.190498559570312,0.5829247,0.028401338,17.244143,0.0146484375
-0.0863338439154447,0.006128637068071691,0.28324961753740036,-0.07802821,0.013003366,-0.00028777958,0.033957433,0.0057508256,0.9994068,0.9989981,-0.02936319,-0.033774585,-0.029151538,-0.9995523,0.006742161,0.36391865234375,-0.30885201416015623,11.329362255859374,0.5882556,0.023877138,17.4101,0.0146484375
-0.0816707504940858,0.016120980113840753,0.1865237368543558,-0.07802821,0.013003366,-0.00028777958,0.033972435,0.005661526,0.9994068,0.99891734,-0.031989608,-0.03377458,-0.031779416,-0.9994722,0.006742161,0.29927520751953124,-0.09816226806640624,11.207257971191405,0.5926395,0.023877138,17.57427,0.0146484375
-0.08180398173469605,0.009459418083328047,0.14868606452104366,-0.07802821,0.013003366,-0.00028777958,0.033985168,0.005584591,0.9994068,0.9988425,-0.03425128,-0.033774585,-0.034042343,-0.9993977,0.006742161,0.4285620971679687,0.3112462158203125,11.257536206054686,0.59891725,0.02843641,17.739176,0.0146484375
-0.08300306290018834,0.009725880564548555,0.2363522208425909,-0.07802821,0.013003366,-0.00028777958,0.034005694,0.005458207,0.9994068,0.9987081,-0.0379644,-0.03377458,-0.037757535,-0.99926424,0.006742161,0.469263525390625,0.565031591796875,11.240776794433593,0.6058485,0.036782213,17.905209,0.014770508
-0.09019754989314206,0.01438897398590745,0.3385405823906558,-0.07802821,0.013003366,-0.00028777958,0.03403314,0.0052843774,0.9994068,0.9985011,-0.043066982,-0.03377458,-0.04286296,-0.99905825,0.006742161,0.3902548706054687,0.2825157958984375,11.286266625976562,0.6115651,0.040920626,18.070536,0.0146484375
-0.08500153150934216,0.004263399699528133,0.37158193006199886,-0.07802821,0.013003366,-0.00028777958,0.034061577,0.0050978465,0.9994068,0.99825025,-0.048536666,-0.033774585,-0.048335694,-0.99880844,0.006742161,0.40462008056640625,0.0143652099609375,11.286266625976562,0.61749214,0.040920626,18.235863,0.0146484375
-0.0868667688778857,0.009326186842717792,0.34347013829323525,-0.07802821,0.013003366,-0.00028777958,0.034086373,0.0049293246,0.9994068,0.997998,-0.05347316,-0.033774585,-0.053274952,-0.99855715,0.006742161,0.3711012573242187,-0.09576806640624999,11.168950744628905,0.6229282,0.040920626,18.399471,0.0146484375
-0.08753292508093698,0.01052526800821008,0.29843797896696933,-0.07802821,0.013003366,-0.00028777958,0.034107123,0.004783642,0.9994068,0.9977604,-0.05773673,-0.033774585,-0.057540912,-0.9983204,0.006742161,0.39743747558593745,-0.1292868896484375,11.168950744628905,0.62879854,0.040920626,18.564442,0.014770508
-0.08393568158446013,0.00866003063966652,0.2467442576101907,-0.07802821,0.013003366,-0.00028777958,0.03412382,0.0046630553,0.9994068,0.99755,-0.061263096,-0.03377458,-0.06106927,-0.9981108,0.006742161,0.3495534423828125,-0.047884033203124995,11.235988391113281,0.6339616,0.040920626,18.730402,0.014770508
-0.08180398173469605,0.009459418083328047,0.26606278749867757,-0.07802821,0.013003366,-0.00028777958,0.03414192,0.0045286156,0.9994068,0.9973011,-0.06519168,-0.033774585,-0.06500006,-0.9978625,0.006742161,0.44053310546874996,0.469263525390625,11.118672509765624,0.6404147,0.047794603,18.893272,0.0146484375
-0.08353598786262936,0.005062787143189658,0.3489326191582557,-0.07802821,0.013003366,-0.00028777958,0.034165844,0.004344434,0.9994068,0.99693495,-0.07056884,-0.03377458,-0.07038025,-0.9974975,0.006742161,0.41898529052734373,0.5530605834960938,11.190498559570312,0.6465522,0.055896077,19.057196,0.0146484375
-0.08433537530629089,0.011191424211261349,0.449788668300218,-0.07802821,0.013003366,-0.00028777958,0.03419385,0.003892897,0.9994077,0.99643207,-0.07733875,-0.033790793,-0.0771614,-0.9969973,0.0065235156,0.3687070556640625,0.3687070556640625,11.240776794433593,0.65195316,0.06129706,19.221855,0.0146484375
-0.08100459429103453,0.009725880564548555,0.5202679945830425,-0.07802821,0.013003366,-0.00028777958,0.034222882,0.0036288383,0.9994077,0.99580544,-0.08502792,-0.033790797,-0.08485493,-0.996372,0.0065235156,0.3280056274414062,0.2346317626953125,11.221623181152344,0.65675795,0.06473405,19.386234,0.0146484375
-0.08726646259971647,0.012523736617363892,0.5615696791722213,-0.07802821,0.013003366,-0.00028777958,0.03425157,0.0033472502,0.9994077,0.9950724,-0.093215026,-0.033790797,-0.0930467,-0.9956404,0.0065235156,0.28490999755859375,0.047884033203124995,11.334150659179686,0.6609314,0.06473405,19.552261,0.0146484375
-0.10045635542013163,0.009059724361497283,0.575558959436298,-0.07802821,0.013003366,-0.00028777958,0.03427768,0.0027936245,0.99940854,0.9942438,-0.10166447,-0.033816364,-0.101509854,-0.9948149,0.0062623643,0.430956298828125,0.03591302490234375,11.283872424316405,0.6672968,0.06473405,19.71893,0.014770508
-0.09113016857741385,0.013856049023466432,0.5625022978564931,-0.07802821,0.013003366,-0.00028777958,0.03429868,0.0023078336,0.9994091,0.9933732,-0.10983904,-0.0338379,-0.109696016,-0.99394673,0.006059872,0.3064578125,-0.076614453125,11.341333264160156,0.67178595,0.06473405,19.885061,0.0146484375
-0.09339509966778817,0.011191424211261349,0.5471807051863139,-0.07802821,0.013003366,-0.00028777958,0.034516174,0.002032367,0.99940217,0.99245524,-0.11778833,-0.034036722,-0.11764872,-0.9930367,0.006082634,0.488417138671875,0.1005564697265625,11.221623181152344,0.6789405,0.06473405,20.04944,0.0146484375
-0.09566003075816248,0.007860643196004996,0.5546416546604881,-0.07802821,0.013003366,-0.00028777958,0.034530826,0.0015206952,0.9994026,0.99145,-0.12596226,-0.034064393,-0.1258352,-0.9920339,0.0058572725,0.3016694091796875,0.229843359375,11.324573852539062,0.68335944,0.06810089,20.215328,0.0146484375
-0.09699234316426504,0.018785604926045835,0.6280520682367381,-0.07802821,0.013003366,-0.00028777958,0.03454239,0.00095791725,0.9994029,0.9902318,-0.13519791,-0.034095827,-0.13508451,-0.9908182,0.0056186174,0.316034619140625,0.2059013427734375,11.326968054199218,0.6879889,0.07111703,20.38125,0.0146484375
-0.10125574286379316,0.008127105677225504,0.7115880560993675,-0.07802821,0.013003366,-0.00028777958,0.03454968,0.0004201653,0.999403,0.9887463,-0.14565928,-0.03412004,-0.14555797,-0.98933476,0.0054479167,0.3854664672851562,0.3232172241210937,11.202469567871093,0.69363534,0.07585166,20.54535,0.0146484375
-0.07687442583211665,0.007860643196004996,0.769543645764828,-0.07802821,0.013003366,-0.00028777958,0.034550827,-0.00021757977,0.999403,0.98703325,-0.15683968,-0.034157332,-0.15675347,-0.9876241,0.0052041807,0.3854664672851562,0.2059013427734375,11.156979736328124,0.6992818,0.07886779,20.708782,0.0146484375
-0.0814042880128653,0.005595712105630674,0.7702098019678792,-0.07802821,0.013003366,-0.00028777958,0.034545857,-0.00062518264,0.999403,0.9851142,-0.16847342,-0.034157332,-0.1683942,-0.98570603,0.0052041807,0.32082302246093747,0.13646949462890623,11.168950744628905,0.70421636,0.07886779,20.88057,0.015380859
-0.08420214406568063,0.013323124061025418,0.7462281786580336,-0.07802821,0.013003366,-0.00028777958,0.034536418,-0.0010212327,0.999403,0.9831178,-0.17975734,-0.034157332,-0.17968489,-0.98371047,0.0052041807,0.3327940307617187,0.016759411621093748,11.020510241699219,0.709335,0.07886779,21.050074,0.015380859
-0.08286983165957809,0.012523736617363892,0.7622159275312641,-0.07802821,0.013003366,-0.00028777958,0.034521904,-0.0014300954,0.999403,0.98092043,-0.19138551,-0.034157332,-0.19132009,-0.9815139,0.0052041807,0.22744915771484372,0.181959326171875,11.118672509765624,0.7128334,0.07886779,21.221088,0.015380859
-0.07847320071943971,0.010125574286379316,0.8630719766732265,-0.07802821,0.013003366,-0.00028777958,0.0344991,-0.0019023627,0.999403,0.9782097,-0.2047906,-0.034157332,-0.20473331,-0.978804,0.0052041807,0.1484405029296875,0.32561142578124996,11.305420239257812,0.7128334,0.083915725,21.396355,0.01550293
-0.0929954059459574,0.006128637068071691,1.0140229722846446,-0.07802821,0.013003366,-0.00028777958,0.034463406,-0.0026139973,0.99940264,0.97485065,-0.2202208,-0.034192756,-0.22017862,-0.9754466,0.005041301,0.22744915771484372,0.33518823242187495,11.202469567871093,0.7163318,0.08907121,21.568659,0.015380859
-0.08806585004337801,0.015454823910789483,1.111814702892571,-0.07802821,0.013003366,-0.00028777958,0.034412418,-0.0032163286,0.99940264,0.9708501,-0.2372363,-0.034192756,-0.23720455,-0.9714467,0.005041301,0.28012159423828126,0.0383072265625,11.202469567871093,0.72070867,0.08907121,21.743698,0.015625
-0.0927289434647369,0.019052067407266345,1.076774886612074,-0.07802821,0.013003366,-0.00028777958,0.03435292,-0.0039720014,0.999402,0.9667901,-0.2532679,-0.034238517,-0.25325245,-0.9673881,0.0048604,0.2609679809570312,-0.2825157958984375,11.291055029296874,0.72475445,0.08469138,21.918743,0.01550293
-0.08926493120887029,0.005995405827461438,1.0061623290886395,-0.07802821,0.013003366,-0.00028777958,0.034286756,-0.0045075947,0.999402,0.9627201,-0.26832384,-0.034238517,-0.2683177,-0.9633183,0.0048604,0.3232172241210937,0.2753331909179687,11.202469567871093,0.7297653,0.08895985,22.092415,0.01550293
-0.08247013793774732,-0.00013323124061025415,1.058388975407859,-0.07802821,0.013003366,-0.00028777958,0.034207433,-0.005074598,0.999402,0.95814604,-0.28422502,-0.034238517,-0.28422877,-0.9587442,0.0048604,0.3495534423828125,0.411802685546875,11.195286962890624,0.7351844,0.095344,22.265974,0.01550293
-0.0909969373368036,0.006794793271122962,1.1417917320298783,-0.07802821,0.013003366,-0.00028777958,0.034110967,-0.005687005,0.999402,0.9528969,-0.30135563,-0.034238517,-0.3013701,-0.9534949,0.0048604,0.3136404174804687,0.2561795776367187,11.329362255859374,0.74004674,0.09931553,22.441612,0.01550293
-0.08433537530629089,0.008393568158446012,1.2258606448549485,-0.07802821,0.013003366,-0.00028777958,0.033994973,-0.006343655,0.999402,0.9469092,-0.3196728,-0.034238517,-0.3196988,-0.94750684,0.0048604,0.10295067138671875,-0.0143652099609375,11.307814440917968,0.74004674,0.09931553,22.618298,0.015625
-0.07860643196004995,0.010924961730040842,1.2563705989546967,-0.07802821,0.013003366,-0.00028777958,0.033864092,-0.007194935,0.9994007,0.94055223,-0.3379126,-0.034302764,-0.33795682,-0.94115,0.0046758875,0.14604630126953125,-0.229843359375,11.274295617675781,0.74004674,0.09578034,22.791706,0.015380859
-0.08833231252459851,0.0063950995492922,1.2351868316976664,-0.07802821,0.013003366,-0.00028777958,0.03372088,-0.007838747,0.9994007,0.93394417,-0.35576895,-0.03430276,-0.3558246,-0.9345411,0.0046758875,0.19153613281249998,-0.13168109130859373,11.33175645751953,0.74004674,0.09578034,22.967382,0.01550293
-0.08846554376520875,0.010924961730040842,1.2178667704183332,-0.07802821,0.013003366,-0.00028777958,0.033566605,-0.008475069,0.9994007,0.927049,-0.37336794,-0.034302764,-0.37343484,-0.92764467,0.0046758875,0.26336218261718747,0.06464344482421874,11.314997045898437,0.7441296,0.09578034,23.142797,0.01550293
-0.08580091895300368,0.014655436467127957,1.1864241976343133,-0.07802821,0.013003366,-0.00028777958,0.033405807,-0.009312635,0.9993986,0.92014766,-0.39005858,-0.034391426,-0.39014423,-0.920743,0.004461219,0.3136404174804687,-0.1197100830078125,11.291055029296874,0.74895364,0.09578034,23.316463,0.015380859
-0.08406891282507037,0.010791730489430587,1.1500520689477138,-0.07802821,0.013003366,-0.00028777958,0.033233885,-0.009908686,0.9993986,0.91302323,-0.4064551,-0.03439142,-0.40655145,-0.9136171,0.004461219,0.2657563842773437,0.028730419921875,11.267113012695312,0.75307363,0.09578034,23.491137,0.01550293
-0.09259571222412663,0.018252679963604822,1.173633998535729,-0.07802821,0.013003366,-0.00028777958,0.033046193,-0.010834751,0.9993952,0.9055191,-0.42289832,-0.034526832,-0.42301667,-0.90611243,0.0041641043,0.37828386230468747,0.05985504150390625,11.276689819335937,0.75889194,0.09578034,23.664581,0.015380859
-0.09645941820182401,0.014788667707738212,1.1777641669946468,-0.07802821,0.013003366,-0.00028777958,0.03284206,-0.011606833,0.9993932,0.89767635,-0.43929484,-0.034601346,-0.43942988,-0.8982679,0.004008165,0.3399766357421875,-0.02633621826171875,11.281478222656249,0.76412106,0.09578034,23.8381,0.015380859
-0.07740735079455767,0.010125574286379316,1.1723016861296265,-0.07802821,0.013003366,-0.00028777958,0.032625142,-0.012393789,0.9993909,0.8895898,-0.45544127,-0.034688756,-0.45559373,-0.8901796,0.0038334448,0.33039982910156246,0.11731588134765625,11.264718811035156,0.7692029,0.09578034,24.011362,0.015380859
-0.10645176124759308,0.018252679963604822,1.1948177657927592,-0.07802821,0.013003366,-0.00028777958,0.032389626,-0.013197625,0.9993883,0.88105714,-0.47172925,-0.034784086,-0.47189972,-0.8816447,0.00365127,0.15083470458984374,0.12449848632812499,11.3006318359375,0.7692029,0.09578034,24.185175,0.015380859
-0.09952373673585986,0.01532159267017923,1.2398499251190251,-0.07802821,0.013003366,-0.00028777958,0.032127216,-0.014077093,0.99938476,0.87181795,-0.48858464,-0.034908403,-0.48877537,-0.8724029,0.0034241986,0.24181436767578124,-0.03591302490234375,11.346121667480467,0.7729517,0.09578034,24.361073,0.01550293
-0.09113016857741385,0.012390505376753637,1.2644977046319221,-0.07802821,0.013003366,-0.00028777958,0.03184542,-0.014703463,0.99938476,0.8620841,-0.50556165,-0.034908403,-0.5057638,-0.86266524,0.0034241988,0.22026655273437498,0.20350714111328125,11.274295617675781,0.7763396,0.09891046,24.534481,0.015380859
-0.09952373673585986,0.014921898948348467,1.3332450247868135,-0.07802821,0.013003366,-0.00028777958,0.031534683,-0.015523662,0.9993822,0.8515086,-0.52317166,-0.034995202,-0.52339166,-0.852086,0.0032795167,0.08858546142578125,0.3016694091796875,11.355698474121093,0.7763396,0.1035504,24.70914,0.015380859
-0.09432771835205994,0.011058192970651094,1.3702833096764642,-0.07802821,0.013003366,-0.00028777958,0.031189006,-0.016206983,0.9993822,0.8399088,-0.5415982,-0.0349952,-0.5418307,-0.8404812,0.0032795162,0.15562310791015624,0.0526724365234375,11.384428894042967,0.7763396,0.1035504,24.889801,0.01586914
-0.09685911192365478,0.007993874436615249,1.3773445654288077,-0.07802821,0.013003366,-0.00028777958,0.030833252,-0.017097292,0.9993784,0.8281479,-0.5594083,-0.035120673,-0.55966103,-0.82871586,0.0030892857,0.6655880615234374,-0.2537853759765625,10.888829150390624,0.78665817,0.09961598,25.058609,0.01550293
-0.10125574286379316,0.0074609494741742334,1.3541623295626233,-0.07802821,0.013003366,-0.00028777958,0.030468177,-0.017995829,0.9993738,0.8163309,-0.5765068,-0.035268895,-0.57678044,-0.8168942,0.0028745541,0.13646949462890623,-0.06703764648437499,11.190498559570312,0.78665817,0.09961598,25.230728,0.015380859
-0.0834027566220191,0.00479632466196915,1.3937320080238687,-0.07802821,0.013003366,-0.00028777958,0.030074557,-0.0186462,0.9993738,0.8037578,-0.5939103,-0.03526889,-0.594196,-0.80431515,0.0028745541,0.2920926025390625,0.016759411621093748,11.015721838378905,0.7911508,0.09961598,25.40016,0.015380859
-0.08620061267483445,0.007061255752343471,1.3939984705050892,-0.07802821,0.013003366,-0.00028777958,0.029665366,-0.019474536,0.9993702,0.79082394,-0.61102015,-0.03538167,-0.6113244,-0.79137546,0.0027252003,0.33758243408203126,-0.028730419921875,11.235988391113281,0.7963431,0.09961598,25.572979,0.015380859
-0.08420214406568063,0.016254211354451008,1.421044412348971,-0.07802821,0.013003366,-0.00028777958,0.029231755,-0.020119544,0.9993702,0.7772528,-0.62819284,-0.03538167,-0.62850916,-0.7777975,0.0027252003,0.22744915771484372,0.040701428222656245,11.319785449218749,0.79984146,0.09961598,25.747087,0.015380859
-0.08899846872764978,0.016787136316892024,1.4055895884381815,-0.07802821,0.013003366,-0.00028777958,0.028783098,-0.0212512,0.99935985,0.7634465,-0.64488363,-0.03570173,-0.6452295,-0.7639852,0.002337586,0.32082302246093747,-0.040701428222656245,11.173739147949219,0.804776,0.09961598,25.91895,0.015380859
-0.09019754989314206,0.01572128639200999,1.4038575823102482,-0.07802821,0.013003366,-0.00028777958,0.028317694,-0.022027738,0.9993563,0.749402,-0.6611464,-0.03580791,-0.66150963,-0.7499334,0.0022145018,0.05746083984375,-0.1149216796875,11.394005700683593,0.804776,0.09961598,26.094198,0.015380859
-0.09632618696121377,0.0073277182335639785,1.3295145500497263,-0.07802821,0.013003366,-0.00028777958,0.027865903,-0.022596559,0.9993563,0.73586243,-0.67618364,-0.035807908,-0.6765576,-0.7363864,0.0022145018,0.16280571289062498,-0.28969840087890625,11.247959399414063,0.804776,0.09516017,26.267202,0.015380859
-0.09046401237436258,0.010924961730040842,1.1774977045134263,-0.07802821,0.013003366,-0.00028777958,0.027454877,-0.023261042,0.99935246,0.7236238,-0.6892591,-0.035923112,-0.68964845,-0.72414136,0.002091273,0.22266075439453123,-0.296881005859375,11.3389390625,0.8082007,0.09059389,26.441605,0.015380859
-0.0929954059459574,0.012656967857974145,1.09036447315432,-0.07802821,0.013003366,-0.00028777958,0.027062653,-0.023716222,0.99935246,0.7120142,-0.7012456,-0.035923112,-0.7016435,-0.7125251,0.002091273,0.2154781494140625,-0.1197100830078125,11.233594189453123,0.811515,0.09059389,26.614388,0.015380859
-0.09059724361497283,0.008926493120887028,1.085701379732961,-0.07802821,0.013003366,-0.00028777958,0.026659302,-0.024404788,0.99934673,0.7001594,-0.7130739,-0.036091715,-0.71348894,-0.7006639,0.0019228052,0.296881005859375,-0.023942016601562498,11.286266625976562,0.8160813,0.09059389,26.78798,0.015380859
-0.08873200624642928,0.009326186842717792,1.1054196033432788,-0.07802821,0.013003366,-0.00028777958,0.02623918,-0.024855938,0.99934673,0.68789536,-0.724912,-0.03609171,-0.7253356,-0.6883928,0.0019228052,0.2561795776367187,0.1388636962890625,11.03248125,0.82002157,0.09059389,26.957668,0.015380859
-0.0860673814342242,0.004663093421358896,1.1500520689477138,-0.07802821,0.013003366,-0.00028777958,0.025790771,-0.025506262,0.999342,0.67487866,-0.7370389,-0.03622854,-0.7374781,-0.6753688,0.0017951641,0.28012159423828126,0.1771709228515625,11.298237634277344,0.8243301,0.09059389,27.131445,0.015380859
-0.0941944871114497,0.017186830038722786,1.1717687611671854,-0.07802821,0.013003366,-0.00028777958,0.025330551,-0.025963368,0.999342,0.66159123,-0.7489891,-0.03622854,-0.7494369,-0.66207343,0.0017951641,0.13407529296874998,-0.20350714111328125,11.326968054199218,0.8243301,0.087463774,27.305664,0.015380859
-0.09499387455511121,0.01692036755750228,1.0919632480416432,-0.07802821,0.013003366,-0.00028777958,0.02472634,-0.02637529,0.9993464,0.6491817,-0.75977546,-0.036114745,-0.7602315,-0.6496503,0.0016641057,0.20350714111328125,-0.42377369384765623,11.496956372070311,0.8274354,0.0809975,27.481094,0.015258789
-0.08433537530629089,0.017852986241774057,1.0220168467212598,-0.07802821,0.013003366,-0.00028777958,0.024292998,-0.026774954,0.9993464,0.63670707,-0.77025956,-0.036114745,-0.77072316,-0.6371681,0.0016641057,0.2346317626953125,-0.10773907470703124,11.118672509765624,0.8311874,0.0809975,27.658895,0.015991211
-0.09259571222412663,0.007993874436615249,1.0707794807846127,-0.07802821,0.013003366,-0.00028777958,0.023840705,-0.02717846,0.9993464,0.62370425,-0.7808257,-0.036114745,-0.7812969,-0.6241574,0.0016641057,0.41419688720703124,0.30885201416015623,11.142614526367186,0.83755815,0.085747905,27.830278,0.015380859
-0.08993108741192156,0.012523736617363892,1.2305237382763077,-0.07802821,0.013003366,-0.00028777958,0.023313658,-0.027801178,0.99934167,0.6086207,-0.7926329,-0.036249116,-0.7931189,-0.609065,0.0015587903,0.3711012573242187,0.4740519287109375,11.128249316406249,0.843266,0.09303923,28.00144,0.015380859
-0.09059724361497283,0.006794793271122962,1.3293813188091161,-0.07802821,0.013003366,-0.00028777958,0.022740787,-0.028271696,0.99934167,0.5922994,-0.80490214,-0.036249116,-0.80539703,-0.5927336,0.0015587901,0.24899697265624998,0.201112939453125,11.341333264160156,0.8470958,0.09613252,28.17588,0.015380859
-0.08819908128398825,0.01372281778285618,1.246511487149538,-0.07802821,0.013003366,-0.00028777958,0.022197623,-0.028983587,0.9993335,0.57692254,-0.81598383,-0.03648071,-0.81649727,-0.57734764,0.0013916066,0.25139117431640623,-0.34715924072265625,11.207257971191405,0.8509931,0.09075053,28.349627,0.01550293
-0.08500153150934216,0.017986217482384312,1.0693139371379,-0.07802821,0.013003366,-0.00028777958,0.021726198,-0.029504206,0.9993286,0.5636944,-0.8251714,-0.036617495,-0.8256977,-0.5641114,0.0012964696,0.11731588134765625,-0.6009446166992187,11.279084020996093,0.8509931,0.08150749,28.52311,0.015380859
-0.09219601850229589,0.012257274136143382,0.8700000011849597,-0.07802821,0.013003366,-0.00028777958,0.021339795,-0.029975135,0.99932295,0.552926,-0.83241844,-0.03677603,-0.83295715,-0.5533363,0.001189596,0.2537853759765625,-0.5243301635742187,11.228805786132812,0.85489655,0.07344284,28.695818,0.015380859
-0.09206278726168562,0.016387442595061263,0.671485452675681,-0.07802821,0.013003366,-0.00028777958,0.02103873,-0.030369522,0.9993174,0.5445927,-0.83788735,-0.03692893,-0.83843684,-0.5449978,0.0010890539,0.10773907470703124,-0.5099649536132812,11.264718811035156,0.85489655,0.06559914,28.86908,0.015380859
-0.0877993875621575,0.005595712105630674,0.5482465551111959,-0.07802821,0.013003366,-0.00028777958,0.020784557,-0.030697882,0.9993127,0.5375991,-0.8423859,-0.037058637,-0.8429445,-0.53799975,0.0010054518,0.28969840087890625,-0.055066638183593745,11.279084020996093,0.85935235,0.06559914,29.042562,0.015380859
-0.08513476274995241,0.010392036767599824,0.582353752707421,-0.07802821,0.013003366,-0.00028777958,0.02050203,-0.031096222,0.9993062,0.52987397,-0.8472586,-0.03723581,-0.8478287,-0.5302696,0.0008934327,0.10295067138671875,0.21787235107421873,11.281478222656249,0.85935235,0.068950206,29.216082,0.015380859
-0.08899846872764978,0.018119448722994567,0.7071914251592291,-0.07802821,0.013003366,-0.00028777958,0.020155348,-0.031477813,0.9993013,0.5204535,-0.853072,-0.03736881,-0.8536521,-0.52084285,0.00081121374,0.0718260498046875,0.23223756103515625,11.384428894042967,0.85935235,0.07252222,29.391184,0.015380859
-0.08966462493070106,0.01185758041431262,0.7786033701263253,-0.07802821,0.013003366,-0.00028777958,0.019770946,-0.03172066,0.9993013,0.51003784,-0.8593399,-0.03736881,-0.8599248,-0.51042014,0.0008112138,0.2753331909179687,0.09576806640624999,11.183315954589844,0.8635872,0.07252222,29.563192,0.015380859
-0.08473506902812164,0.01052526800821008,0.8175068923845195,-0.07802821,0.013003366,-0.00028777958,0.019368764,-0.032152113,0.9992954,0.499176,-0.8656876,-0.037528493,-0.8662842,-0.49955103,0.00071772427,0.22744915771484372,0.12449848632812499,11.264718811035156,0.8670856,0.07252222,29.736454,0.015380859
-0.07567534466662437,0.0073277182335639785,0.8324287913328681,-0.07802821,0.013003366,-0.00028777958,0.018954316,-0.032645714,0.99928737,0.4880618,-0.87199265,-0.03774454,-0.87260336,-0.48842925,0.00059488794,0.1580173095703125,-0.009576806640625,11.221623181152344,0.8670856,0.07252222,29.909052,0.015380859
-0.08446860654690114,0.01372281778285618,0.8330949475359193,-0.07802821,0.013003366,-0.00028777958,0.018533356,-0.033054527,0.9992818,0.476848,-0.8781687,-0.0378922,-0.8787905,-0.47720766,0.00051341765,0.17238251953125,-0.13168109130859373,11.168950744628905,0.8670856,0.07252222,30.08084,0.015380859
-0.0831362941407986,0.01345635530163567,0.8652036765229906,-0.07802821,0.013003366,-0.00028777958,0.018086381,-0.03351204,0.9992748,0.4650123,-0.884485,-0.038078845,-0.8851196,-0.46536362,0.0004136111,0.2705447875976562,0.28012159423828126,11.17852755126953,0.8712468,0.07683074,30.252775,0.015380859
-0.07327718233563979,0.0127901990985844,0.9976355296895832,-0.07802821,0.013003366,-0.00028777958,0.017551033,-0.034210533,0.99926066,0.45097145,-0.8917099,-0.038449254,-0.8923659,-0.45131263,0.0002224465,0.32561142578124996,0.430956298828125,11.109095703125,0.8763345,0.08356443,30.426355,0.015625
-0.08073813180981403,0.015188361429568975,1.053192957024059,-0.07802821,0.013003366,-0.00028777958,0.016993871,-0.034756523,0.9992514,0.43650588,-0.89886916,-0.03868839,-0.89954096,-0.43683642,0.00010382893,0.28490999755859375,-0.19871873779296872,11.128249316406249,0.8807166,0.08356443,30.597517,0.015380859
-0.10538591132271104,0.005196018383799912,1.0296110274360442,-0.07802821,0.013003366,-0.00028777958,0.016619703,-0.03502485,0.9992483,0.42209333,-0.9057232,-0.03876696,-0.90640014,-0.42242014,0.00026908392,0.28730419921875,0.11252747802734374,11.068394274902342,0.8851707,0.08356443,30.76911,0.01550293
-0.08739969384032674,0.0075941807147844875,1.0465313949935464,-0.07802821,0.013003366,-0.00028777958,0.01605384,-0.035498984,0.9992409,0.40750542,-0.91237134,-0.038959794,-0.91306174,-0.40782136,0.00018102369,0.11013327636718749,-0.09337386474609374,11.477802758789062,0.8851707,0.08356443,30.944246,0.015258789
-0.09446094959267021,0.01985145485092787,1.1068851469899916,-0.07802821,0.013003366,-0.00028777958,0.015654018,-0.036195133,0.9992222,0.39181063,-0.9192004,-0.039434597,-0.9199128,-0.39212304,0.00020753045,0.16519991455078123,0.1388636962890625,10.967837805175781,0.8851707,0.08356443,31.112942,0.015380859
-0.08193721297530632,0.003863705977697371,1.1417917320298783,-0.07802821,0.013003366,-0.00028777958,0.015015793,-0.03646453,0.9992222,0.37560335,-0.9259412,-0.039434597,-0.926659,-0.37590322,0.00020753045,0.028730419921875,0.19871873779296872,10.991779821777342,0.8851707,0.08356443,31.282005,0.015380859
-0.08073813180981403,0.011591117933092112,1.1501853001883242,-0.07802821,0.013003366,-0.00028777958,0.014368946,-0.036724236,0.9992222,0.35917887,-0.9324353,-0.039434597,-0.93315816,-0.359466,0.00020753042,0.19393033447265623,0.0383072265625,11.164162341308593,0.8851707,0.08356443,31.45372,0.015380859
-0.09579326199877274,0.01438897398590745,1.160977030677755,-0.07802821,0.013003366,-0.00028777958,0.013712835,-0.03697424,0.9992222,0.34252098,-0.93868226,-0.039434597,-0.93941015,-0.3427952,0.00020753042,0.23223756103515625,-0.05985504150390625,11.204863769531249,0.8887427,0.08356443,31.62606,0.015380859
-0.08593415019361393,0.010924961730040842,1.13233231394655,-0.07802821,0.013003366,-0.00028777958,0.013069961,-0.037368312,0.9992162,0.32623658,-0.9444588,-0.039587688,-0.9451978,-0.32649815,0.00015311794,0.2561795776367187,-0.2537853759765625,11.305420239257812,0.89268297,0.079661,31.799948,0.015380859
-0.09392802463022919,0.013856049023466432,1.0790398177024485,-0.07802821,0.013003366,-0.00028777958,0.0124482345,-0.037872694,0.9992052,0.3105848,-0.94970936,-0.0398659,-0.9504642,-0.31083405,5.9508362e-05,0.19632453613281248,-0.06703764648437499,11.276689819335937,0.89268297,0.079661,31.973392,0.015380859
-0.09472741207389071,0.013056661579804908,1.070379787062782,-0.07802821,0.013003366,-0.00028777958,0.011819433,-0.03807362,0.9992052,0.294817,-0.9547218,-0.0398659,-0.9554807,-0.2950537,5.9508362e-05,0.11252747802734374,0.0526724365234375,11.06360587158203,0.89268297,0.079661,32.14356,0.015380859
-0.08620061267483445,0.008926493120887028,1.0841026048456381,-0.07802821,0.013003366,-0.00028777958,0.011385225,-0.038670674,0.9991873,0.27889147,-0.95947623,-0.04031152,-0.9602552,-0.2791236,0.0001389196,0.2442085693359375,0.00239420166015625,11.281478222656249,0.89643914,0.079661,32.317078,0.015380859
-0.09779173060792655,0.0037304747370871167,1.0392036767599824,-0.07802821,0.013003366,-0.00028777958,0.010766368,-0.038847517,0.9991873,0.2635372,-0.9638066,-0.04031152,-0.96458924,-0.26375684,0.0001389196,0.040701428222656245,-0.06464344482421874,11.405976708984374,0.89643914,0.079661,32.49251,0.015380859
-0.08033843808798326,0.020917304775809907,1.0952940290568995,-0.07802821,0.013003366,-0.00028777958,0.010109787,-0.03926137,0.999178,0.2472977,-0.9680911,-0.040541958,-0.9688869,-0.24750412,7.793552e-05,0.19871873779296872,0.0430956298828125,11.183315954589844,0.89643914,0.079661,32.663155,0.015258789
-0.08220367545652682,0.01692036755750228,1.1167442587951504,-0.07802821,0.013003366,-0.00028777958,0.009432213,-0.039655097,0.99916905,0.23063853,-0.9721853,-0.04076133,-0.9729938,-0.23083118,2.3853212e-05,0.33518823242187495,-0.21787235107421873,11.405976708984374,0.90159464,0.076309934,32.83859,0.015380859
-0.08819908128398825,0.016520673835671518,1.1130137840580634,-0.07802821,0.013003366,-0.00028777958,0.008730655,-0.039815437,0.99916905,0.2134392,-0.97610563,-0.04076133,-0.9769174,-0.21361753,2.3853212e-05,0.2825157958984375,0.02154781494140625,11.149797131347656,0.9060779,0.076309934,33.015526,0.01586914
-0.09073047485558308,0.011324655451871604,1.1504517626695447,-0.07802821,0.013003366,-0.00028777958,0.008184366,-0.03996582,0.9991677,0.19604436,-0.9797461,-0.04079473,-0.98056096,-0.19621488,0.00018351495,0.22026655273437498,0.23702596435546874,11.489773767089844,0.9094658,0.0799556,33.19225,0.015380859
-0.09605972447999325,0.014522205226517705,1.2084073523350052,-0.07802821,0.013003366,-0.00028777958,0.0074335383,-0.040323477,0.99915916,0.17768751,-0.98323244,-0.041002594,-0.984059,-0.17784272,0.00014390508,0.18914193115234373,0.1580173095703125,11.25514200439453,0.9094658,0.0799556,33.365364,0.015380859
-0.09392802463022919,0.013056661579804908,1.2651638608349733,-0.07802821,0.013003366,-0.00028777958,0.0066384934,-0.040740672,0.99914783,0.15836899,-0.9865169,-0.041277785,-0.9873578,-0.15850788,9.691391e-05,-0.02154781494140625,0.12689268798828124,11.334150659179686,0.9094658,0.0799556,33.539692,0.015380859
-0.08953139369009079,0.006794793271122962,1.3391071993736647,-0.07802821,0.013003366,-0.00028777958,0.0057867947,-0.040870346,0.99914783,0.13774599,-0.9896071,-0.04127778,-0.9904507,-0.1378673,9.691389e-05,0.0047884033203125,0.18914193115234373,11.283872424316405,0.9094658,0.0799556,33.714626,0.01550293
-0.08713323135910622,0.01212404289553313,1.3741470156541615,-0.07802821,0.013003366,-0.00028777958,0.004917087,-0.041162673,0.9991405,0.11673399,-0.9922977,-0.04145516,-0.99315107,-0.11683732,7.411785e-05,0.11013327636718749,0.22266075439453123,11.092336291503905,0.9094658,0.08338031,33.885235,0.015380859
-0.09059724361497283,0.009192955602107537,1.4030581948665866,-0.07802821,0.013003366,-0.00028777958,0.0040178234,-0.04153504,0.9991291,0.09512834,-0.99459,-0.041728795,-0.99545693,-0.095213,4.491362e-05,0.13646949462890623,0.02633621826171875,11.264718811035156,0.9094658,0.08338031,34.05987,0.01550293
-0.0877993875621575,0.008526799399056265,1.3998606450919404,-0.07802821,0.013003366,-0.00028777958,0.003126423,-0.04161163,0.9991291,0.07378329,-0.9964009,-0.041728795,-0.99726945,-0.07384935,4.491362e-05,0.016759411621093748,0.12449848632812499,11.269507214355468,0.9094658,0.08338031,34.233208,0.015380859
-0.08286983165957809,0.0074609494741742334,1.4017258824604841,-0.07802821,0.013003366,-0.00028777958,0.00222513,-0.041669548,0.9991291,0.05220186,-0.99776435,-0.041728795,-0.99863416,-0.052249104,4.491362e-05,0.05027823486328125,0.143652099609375,11.353304272460937,0.9094658,0.08338031,34.407833,0.015380859
-0.09006431865253181,0.014522205226517705,1.4691408902092726,-0.07802821,0.013003366,-0.00028777958,0.0010921515,-0.041898713,0.9991214,0.029319907,-0.998691,-0.04191262,-0.9995695,-0.029339774,-0.00013775901,0.12449848632812499,0.411802685546875,11.097124694824219,0.9094658,0.08971419,34.578518,0.015380859
-0.08513476274995241,0.009992343045769061,1.5958438000296242,-0.07802821,0.013003366,-0.00028777958,4.6798727e-05,-0.042155206,0.99911124,0.004473967,-0.99910104,-0.04215489,-0.99999005,-0.00447182,-0.00014185983,-0.07422025146484375,0.3854664672851562,11.286266625976562,0.9094658,0.095643,34.75211,0.015380859
-0.09952373673585986,0.02717917308449185,1.6965666179309764,-0.07802821,0.013003366,-0.00028777958,-0.00080768217,-0.042658094,0.99908954,-0.021096686,-0.9988667,-0.042665534,-0.9997772,0.02111208,9.316004e-05,0.1197100830078125,0.45489831542968745,11.195286962890624,0.9094658,0.10263973,34.9243,0.015380859
-0.09059724361497283,0.01052526800821008,1.7222802473687555,-0.07802821,0.013003366,-0.00028777958,-0.0019374016,-0.043023944,0.9990723,-0.04742472,-0.9979459,-0.043067303,-0.99887294,0.0474643,0.000106957086,0.08858546142578125,0.06703764648437499,11.516109985351562,0.9094658,0.10263973,35.10143,0.015380859
-0.10765084241308535,0.023581929588014985,1.7133537542478685,-0.07802821,0.013003366,-0.00028777958,-0.0030692504,-0.043350134,0.9990554,-0.07355798,-0.9963436,-0.043458346,-0.99728626,0.07362202,0.00013069902,0.023942016601562498,-0.023942016601562498,11.489773767089844,0.9094658,0.10263973,35.278152,0.015380859
-0.08406891282507037,0.028911179212425153,1.659128639319495,-0.07802821,0.013003366,-0.00028777958,-0.0041838307,-0.043708444,0.9990357,-0.099041134,-0.9941142,-0.043907788,-0.9950746,0.09912947,0.0001697051,0.19632453613281248,0.05027823486328125,11.06360587158203,0.9094658,0.10263973,35.44832,0.015380859
-0.07980551312554225,0.009459418083328047,1.6347473222878186,-0.07802821,0.013003366,-0.00028777958,-0.0052859867,-0.043837674,0.9990248,-0.12403631,-0.9912948,-0.04415466,-0.9922636,0.12414888,0.00019746821,-0.09576806640624999,0.1484405029296875,11.25514200439453,0.9094658,0.10263973,35.621433,0.015380859
-0.09286217470534716,0.005462480865020421,1.6078346116845474,-0.07802821,0.013003366,-0.00028777958,-0.0064106174,-0.044014372,0.99901044,-0.14937128,-0.9877803,-0.044477984,-0.9887605,0.14950874,0.00024217617,0.08140285644531249,-0.02154781494140625,11.3006318359375,0.9094658,0.10263973,35.802143,0.015991211
-0.09432771835205994,0.013856049023466432,1.5644012272456043,-0.07802821,0.013003366,-0.00028777958,-0.007464299,-0.044123556,0.9989983,-0.17294274,-0.9839148,-0.044749416,-0.9849036,0.17310366,0.00028658818,-0.09337386474609374,-0.105344873046875,11.192892761230468,0.9094658,0.10263973,35.9743,0.015380859
-0.0834027566220191,0.009725880564548555,1.514306280776149,-0.07802821,0.013003366,-0.00028777958,-0.008484394,-0.04415699,0.9989887,-0.19563201,-0.9796461,-0.04496339,-0.9806407,0.19581577,0.0003267894,-0.12689268798828124,-0.34715924072265625,11.449072338867186,0.9094658,0.09730012,36.1504,0.015380859
-0.09526033703633173,0.022915773384963714,1.4451592668994269,-0.07802821,0.013003366,-0.00028777958,-0.009470934,-0.04428139,0.9989743,-0.21743658,-0.9750236,-0.045281045,-0.97602856,0.21764253,0.00039398053,0.062249243164062495,-0.229843359375,11.314997045898437,0.9094658,0.09373687,36.325813,0.01550293
-0.08127105677225505,0.009725880564548555,1.3614900477961873,-0.07802821,0.013003366,-0.00028777958,-0.010389479,-0.044074923,0.9989743,-0.23765992,-0.9702925,-0.045281045,-0.97129285,0.23788668,0.00039398047,0.07900865478515624,0.06943184814453125,11.039663854980468,0.9094658,0.09373687,36.495613,0.015380859
-0.08553445647178318,0.02531393571594829,1.3080643203114755,-0.07802821,0.013003366,-0.00028777958,-0.011278871,-0.044052985,0.9989656,-0.25719392,-0.96528935,-0.045471642,-0.966294,0.25744087,0.00044275576,0.016759411621093748,-0.023942016601562498,11.10191309814453,0.9094658,0.09373687,36.667725,0.01550293
-0.08580091895300368,0.015454823910789483,1.2664961732410762,-0.07802821,0.013003366,-0.00028777958,-0.0121334605,-0.04400253,0.9989578,-0.27588016,-0.96010786,-0.045641992,-0.9611155,0.27614653,0.00048996357,-0.011971008300781249,-0.05985504150390625,11.269507214355468,0.9094658,0.09373687,36.84106,0.015380859
-0.09899081177341885,0.007061255752343471,1.2160015330497898,-0.07802821,0.013003366,-0.00028777958,-0.01295403,-0.044043746,0.9989457,-0.2937265,-0.95478654,-0.045905586,-0.95580167,0.29401156,0.0005684498,0.13168109130859373,-0.105344873046875,11.176133349609374,0.9094658,0.09373687,37.01296,0.015380859
-0.09006431865253181,0.011191424211261349,1.1419249632704884,-0.07802821,0.013003366,-0.00028777958,-0.0137187,-0.043966237,0.9989389,-0.3102721,-0.9495317,-0.0460526,-0.9505488,0.31057474,0.00061512354,0.11252747802734374,-0.28730419921875,11.082759484863281,0.9094658,0.08931789,37.183422,0.015380859
-0.0816707504940858,0.004663093421358896,1.0581225129266385,-0.07802821,0.013003366,-0.00028777958,-0.01442706,-0.043905865,0.9989316,-0.3255396,-0.9443986,-0.046210457,-0.94541836,0.32585853,0.0006681681,0.028730419921875,-0.05746083984375,11.264718811035156,0.9094658,0.08931789,37.35668,0.015380859
-0.07873966320066021,0.002264931090374321,1.013756509803424,-0.07802821,0.013003366,-0.00028777958,-0.015116149,-0.043673415,0.9989316,-0.3403597,-0.9391591,-0.046210453,-0.9401738,0.34069467,0.0006681681,0.10295067138671875,0.11013327636718749,11.0707884765625,0.9094658,0.08931789,37.531013,0.01574707
-0.08393568158446013,0.006528330789902454,0.968724350477158,-0.07802821,0.013003366,-0.00028777958,-0.015773045,-0.04344049,0.9989316,-0.35448393,-0.93391955,-0.046210453,-0.9349291,0.35483417,0.0006681681,-0.15083470458984374,-0.2346317626953125,11.501744775390625,0.9094658,0.08565177,37.710728,0.015625
-0.0932618684271779,0.011058192970651094,0.8958468618633489,-0.07802821,0.013003366,-0.00028777958,-0.016390689,-0.043211233,0.9989316,-0.367761,-0.9287715,-0.046210453,-0.9297759,0.3681256,0.0006681681,0.15083470458984374,-0.0909796630859375,11.221623181152344,0.9094658,0.08565177,37.891544,0.016113281
-0.08766615632154724,0.015854517632620246,0.8143093426098735,-0.07802821,0.013003366,-0.00028777958,-0.0169686,-0.043256383,0.99891996,-0.3801425,-0.9237604,-0.04645906,-0.92477226,0.3805204,0.00076863536,0.229843359375,-0.0909796630859375,11.334150659179686,0.91328156,0.08565177,38.07971,0.016601562
-0.10112251162318292,0.015454823910789483,0.6902710576017268,-0.07802821,0.013003366,-0.00028777958,-0.017442318,-0.0434261,0.99890447,-0.39021608,-0.9195337,-0.046789158,-0.9205581,0.3906048,0.00090672844,0.031124621582031248,-0.469263525390625,11.358092675781249,0.91328156,0.07797583,38.2655,0.016357422
-0.08420214406568063,0.003464012255866608,0.5149387449586323,-0.07802821,0.013003366,-0.00028777958,-0.017778816,-0.043289427,0.99890447,-0.3973407,-0.9164776,-0.046789158,-0.91749895,0.39773732,0.00090672844,0.07900865478515624,-0.4429273071289062,11.286266625976562,0.91328156,0.07100102,38.443226,0.01574707
-0.09392802463022919,0.016653905076281773,0.327082695698174,-0.07802821,0.013003366,-0.00028777958,-0.017993247,-0.043431543,0.99889445,-0.40186805,-0.91449064,-0.04700047,-0.9155208,0.40226954,0.0009990584,0.1292868896484375,-0.5865794067382812,11.226411584472656,0.91328156,0.06162091,38.62275,0.015991211
-0.08553445647178318,0.011724349173702367,0.12537059741424916,-0.07802821,0.013003366,-0.00028777958,-0.01806141,-0.04340324,0.99889445,-0.40330327,-0.9138586,-0.04700047,-0.9148881,0.40370637,0.0009990584,0.12449848632812499,-0.6009446166992187,11.247959399414063,0.91328156,0.05223115,38.7985,0.015625
-0.08553445647178318,0.012390505376753637,-0.002398162330984575,-0.07802821,0.013003366,-0.00028777958,-0.01806141,-0.04340324,0.99889445,-0.40330327,-0.9138586,-0.04700047,-0.9148881,0.40370637,0.0009990584,0.16041151123046873,0.1484405029296875,11.281478222656249,0.91328156,0.05223115,38.973396,0.01550293
-0.08580091895300368,0.008926493120887028,-0.0013323124061025418,-0.07802821,0.013003366,-0.00028777958,-0.01806141,-0.04340324,0.99889445,-0.40330327,-0.9138586,-0.04700047,-0.9148881,0.40370637,0.0009990584,0.181959326171875,0.14125789794921875,11.243170996093749,0.91328156,0.05223115,39.147697,0.01550293
-0.08273660041896783,0.007860643196004996,0.0002664624812205083,-0.07802821,0.013003366,-0.00028777958,-0.01806141,-0.04340324,0.99889445,-0.40330327,-0.9138586,-0.04700047,-0.9148881,0.40370637,0.0009990584,0.1292868896484375,0.16998831787109375,11.202469567871093,0.91328156,0.05223115,39.32547,0.01586914
-0.0814042880128653,0.004396630940138387,-0.0003996937218307625,-0.07802821,0.013003366,-0.00028777958,-0.01806141,-0.04340324,0.99889445,-0.40330327,-0.9138586,-0.04700047,-0.9148881,0.40370637,0.0009990584,0.181959326171875,0.07422025146484375,11.247959399414063,0.91328156,0.05223115,39.505337,0.015991211
-0.0814042880128653,0.006528330789902454,0.0009326186842717792,-0.07802821,0.013003366,-0.00028777958,-0.01806141,-0.04340324,0.99889445,-0.40330327,-0.9138586,-0.04700047,-0.9148881,0.40370637,0.0009990584,0.1388636962890625,0.08140285644531249,11.262324609375,0.91328156,0.05223115,39.68406,0.01586914
-0.0816707504940858,0.005995405827461438,0.0013323124061025418,-0.07802821,0.013003366,-0.00028777958,-0.01806141,-0.04340324,0.99889445,-0.40330327,-0.9138586,-0.04700047,-0.9148881,0.40370637,0.0009990584,0.19153613281249998,0.076614453125,11.247959399414063,0.91328156,0.05223115,39.862556,0.01586914
-0.080205206847373,0.011457886692481857,-0.0009326186842717792,-0.07802821,0.013003366,-0.00028777958,-0.01806141,-0.04340324,0.99889445,-0.40330327,-0.9138586,-0.04700047,-0.9148881,0.40370637,0.0009990584,0.1197100830078125,0.07900865478515624,11.166556542968749,0.91328156,0.05223115,40.0384,0.01574707
-0.08193721297530632,0.005995405827461438,0.001732006127933304,-0.07802821,0.013003366,-0.00028777958,-0.01806141,-0.04340324,0.99889445,-0.40330327,-0.9138586,-0.04700047,-0.9148881,0.40370637,0.0009990584,0.1292868896484375,0.10773907470703124,11.245565197753905,0.91328156,0.05223115,40.216858,0.01586914
-0.0860673814342242,0.007993874436615249,0.0002664624812205083,-0.07802821,0.013003366,-0.00028777958,-0.01806141,-0.04340324,0.99889445,-0.40330327,-0.9138586,-0.04700047,-0.9148881,0.40370637,0.0009990584,0.15562310791015624,0.086191259765625,11.322179650878905,0.91328156,0.05223115,40.39515,0.01574707
-0.08366921910323963,0.01052526800821008,0.0002664624812205083,-0.07802821,0.013003366,-0.00028777958,-0.01806141,-0.04340324,0.99889445,-0.40330327,-0.9138586,-0.04700047,-0.9148881,0.40370637,0.0009990584,0.11252747802734374,0.11013327636718749,11.267113012695312,0.91328156,0.05223115,40.571198,0.015625
-0.08193721297530632,0.009725880564548555,-0.002797856052815337,-0.07802821,0.013003366,-0.00028777958,-0.01806141,-0.04340324,0.99889445,-0.40330327,-0.9138586,-0.04700047,-0.9148881,0.40370637,0.0009990584,0.1005564697265625,0.06703764648437499,11.245565197753905,0.91328156,0.05223115,40.748283,0.01574707
-0.08286983165957809,0.010392036767599824,0.002531393571594829,-0.07802821,0.013003366,-0.00028777958,-0.01806141,-0.04340324,0.99889445,-0.40330327,-0.9138586,-0.04700047,-0.9148881,0.40370637,0.0009990584,0.1771709228515625,0.06464344482421874,11.274295617675781,0.91328156,0.05223115,40.924446,0.015625
-0.08433537530629089,0.0095926493239383,-0.00013323124061025415,-0.07802821,0.013003366,-0.00028777958,-0.01806141,-0.04340324,0.99889445,-0.40330327,-0.9138586,-0.04700047,-0.9148881,0.40370637,0.0009990584,0.12449848632812499,0.06943184814453125,11.259930407714844,0.91328156,0.05223115,41.101757,0.01574707
-0.08326952538140886,0.009992343045769061,-0.0009326186842717792,-0.07802821,0.013003366,-0.00028777958,-0.01806141,-0.04340324,0.99889445,-0.40330327,-0.9138586,-0.04700047,-0.9148881,0.40370637,0.0009990584,0.1484405029296875,0.13168109130859373,11.324573852539062,0.91328156,0.05223115,41.280087,0.01574707
-0.08153751925347555,0.009459418083328047,0.00013323124061025415,-0.07802821,0.013003366,-0.00028777958,-0.01806141,-0.04340324,0.99889445,-0.40330327,-0.9138586,-0.04700047,-0.9148881,0.40370637,0.0009990584,0.1867477294921875,0.11252747802734374,11.18571015625,0.91328156,0.05223115,41.454865,0.015625
-0.08406891282507037,0.008526799399056265,0.0009326186842717792,-0.07802821,0.013003366,-0.00028777958,-0.01806141,-0.04340324,0.99889445,-0.40330327,-0.9138586,-0.04700047,-0.9148881,0.40370637,0.0009990584,0.1771709228515625,0.0909796630859375,11.228805786132812,0.91328156,0.05223115,41.631687,0.01574707
-0.08380245034384987,0.007061255752343471,-0.0006661562030512709,-0.07802821,0.013003366,-0.00028777958,-0.01806141,-0.04340324,0.99889445,-0.40330327,-0.9138586,-0.04700047,-0.9148881,0.40370637,0.0009990584,0.1388636962890625,0.062249243164062495,11.183315954589844,0.91328156,0.05223115,41.807793,0.01574707
-0.08286983165957809,0.005462480865020421,0.002264931090374321,-0.07802821,0.013003366,-0.00028777958,-0.01806141,-0.04340324,0.99889445,-0.40330327,-0.9138586,-0.04700047,-0.9148881,0.40370637,0.0009990584,0.16041151123046873,0.09337386474609374,11.202469567871093,0.91328156,0.05223115,41.985565,0.01586914
-0.08300306290018834,0.011191424211261349,0.0005329249624410166,-0.07802821,0.013003366,-0.00028777958,-0.01806141,-0.04340324,0.99889445,-0.40330327,-0.9138586,-0.04700047,-0.9148881,0.40370637,0.0009990584,0.13168109130859373,0.076614453125,11.195286962890624,0.91328156,0.05223115,42.157757,0.015380859
-0.08233690669713707,0.009326186842717792,-0.0011990811654922875,-0.07802821,0.013003366,-0.00028777958,-0.01806141,-0.04340324,0.99889445,-0.40330327,-0.9138586,-0.04700047,-0.9148881,0.40370637,0.0009990584,0.12449848632812499,0.12689268798828124,11.2240173828125,0.91328156,0.05223115,42.33039,0.015380859
-0.08260336917835759,0.0031975497746461,-0.0002664624812205083,-0.07802821,0.013003366,-0.00028777958,-0.01806141,-0.04340324,0.99889445,-0.40330327,-0.9138586,-0.04700047,-0.9148881,0.40370637,0.0009990584,0.12449848632812499,0.05746083984375,11.252747802734374,0.91328156,0.05223115,42.502094,0.015258789
-0.0814042880128653,0.0075941807147844875,-0.0014655436467127959,-0.07802821,0.013003366,-0.00028777958,-0.01806141,-0.04340324,0.99889445,-0.40330327,-0.9138586,-0.04700047,-0.9148881,0.40370637,0.0009990584,0.1388636962890625,0.1197100830078125,11.281478222656249,0.91328156,0.05223115,42.675613,0.015380859
-0.08220367545652682,0.01052526800821008,-0.001732006127933304,-0.07802821,0.013003366,-0.00028777958,-0.01806141,-0.04340324,0.99889445,-0.40330327,-0.9138586,-0.04700047,-0.9148881,0.40370637,0.0009990584,0.13168109130859373,0.016759411621093748,11.286266625976562,0.91328156,0.05223115,42.849205,0.015380859
-0.08247013793774732,0.009725880564548555,0.00013323124061025415,-0.07802821,0.013003366,-0.00028777958,-0.01806141,-0.04340324,0.99889445,-0.40330327,-0.9138586,-0.04700047,-0.9148881,0.40370637,0.0009990584,0.1867477294921875,0.11731588134765625,11.233594189453123,0.91328156,0.05223115,43.021988,0.015380859
-0.08420214406568063,0.005595712105630674,-0.0019984686091538122,-0.07802821,0.013003366,-0.00028777958,-0.01806141,-0.04340324,0.99889445,-0.40330327,-0.9138586,-0.04700047,-0.9148881,0.40370637,0.0009990584,0.09816226806640624,0.11252747802734374,11.226411584472656,0.91328156,0.05223115,43.19466,0.015380859
-0.08207044421591657,0.0074609494741742334,-0.0009326186842717792,-0.07802821,0.013003366,-0.00028777958,-0.01806141,-0.04340324,0.99889445,-0.40330327,-0.9138586,-0.04700047,-0.9148881,0.40370637,0.0009990584,0.13407529296874998,0.1005564697265625,11.269507214355468,0.91328156,0.05223115,43.367996,0.015380859
-0.08326952538140886,0.006928024511733216,0.000799387443661525,-0.07802821,0.013003366,-0.00028777958,-0.01806141,-0.04340324,0.99889445,-0.40330327,-0.9138586,-0.04700047,-0.9148881,0.40370637,0.0009990584,0.1771709228515625,0.04548983154296875,11.243170996093749,0.91328156,0.05223115,43.540924,0.015380859
-0.08273660041896783,0.005595712105630674,-0.0003996937218307625,-0.07802821,0.013003366,-0.00028777958,-0.01806141,-0.04340324,0.99889445,-0.40330327,-0.9138586,-0.04700047,-0.9148881,0.40370637,0.0009990584,0.143652099609375,0.047884033203124995,11.291055029296874,0.91328156,0.05223115,43.714592,0.015380859
-0.08620061267483445,0.006661562030512709,0.0013323124061025418,-0.07802821,0.013003366,-0.00028777958,-0.01806141,-0.04340324,0.99889445,-0.40330327,-0.9138586,-0.04700047,-0.9148881,0.40370637,0.0009990584,0.16280571289062498,0.055066638183593745,11.269507214355468,0.91328156,0.05223115,43.887928,0.015380859
-0.08100459429103453,0.009059724361497283,0.0013323124061025418,-0.07802821,0.013003366,-0.00028777958,-0.01806141,-0.04340324,0.99889445,-0.40330327,-0.9138586,-0.04700047,-0.9148881,0.40370637,0.0009990584,0.1197100830078125,0.11252747802734374,11.245565197753905,0.91328156,0.05223115,44.066387,0.01586914
-0.08566768771239343,0.010791730489430587,0.0002664624812205083,-0.07802821,0.013003366,-0.00028777958,-0.01806141,-0.04340324,0.99889445,-0.40330327,-0.9138586,-0.04700047,-0.9148881,0.40370637,0.0009990584,0.09576806640624999,0.11731588134765625,11.231199987792968,0.91328156,0.05223115,44.240505,0.01550293
-0.08513476274995241,0.004263399699528133,-0.0009326186842717792,-0.07802821,0.013003366,-0.00028777958,-0.01806141,-0.04340324,0.99889445,-0.40330327,-0.9138586,-0.04700047,-0.9148881,0.40370637,0.0009990584,0.16759411621093748,0.05985504150390625,11.176133349609374,0.91328156,0.05223115,44.412403,0.015380859
-0.08500153150934216,0.008793261880276773,0.0,-0.07802821,0.013003366,-0.00028777958,-0.01806141,-0.04340324,0.99889445,-0.40330327,-0.9138586,-0.04700047,-0.9148881,0.40370637,0.0009990584,0.16041151123046873,0.10295067138671875,11.264718811035156,0.91328156,0.05223115,44.585663,0.015380859
-0.08473506902812164,0.008526799399056265,0.0013323124061025418,-0.07802821,0.013003366,-0.00028777958,-0.01806141,-0.04340324,0.99889445,-0.40330327,-0.9138586,-0.04700047,-0.9148881,0.40370637,0.0009990584,0.19153613281249998,0.06943184814453125,11.264718811035156,0.91328156,0.05223115,44.75755,0.015258789
-0.08220367545652682,0.0074609494741742334,0.0,-0.07802821,0.013003366,-0.00028777958,-0.01806141,-0.04340324,0.99889445,-0.40330327,-0.9138586,-0.04700047,-0.9148881,0.40370637,0.0009990584,0.12449848632812499,0.1197100830078125,11.207257971191405,0.91328156,0.05223115,44.92856,0.015258789
-0.08500153150934216,0.009192955602107537,0.0003996937218307625,-0.07802821,0.013003366,-0.00028777958,-0.01806141,-0.04340324,0.99889445,-0.40330327,-0.9138586,-0.04700047,-0.9148881,0.40370637,0.0009990584,0.18435352783203124,-0.0143652099609375,11.279084020996093,0.91328156,0.05223115,45.10204,0.015380859
-0.0831362941407986,0.0075941807147844875,0.002264931090374321,-0.07802821,0.013003366,-0.00028777958,-0.01806141,-0.04340324,0.99889445,-0.40330327,-0.9138586,-0.04700047,-0.9148881,0.40370637,0.0009990584,0.05985504150390625,0.076614453125,11.21683477783203,0.91328156,0.05223115,45.274563,0.015380859
-0.08087136305042428,0.00985911180515881,0.001732006127933304,-0.07802821,0.013003366,-0.00028777958,-0.01806141,-0.04340324,0.99889445,-0.40330327,-0.9138586,-0.04700047,-0.9148881,0.40370637,0.0009990584,0.06703764648437499,0.08858546142578125,11.17852755126953,0.91328156,0.05223115,45.447865,0.01550293
-0.0846018377875114,0.0075941807147844875,-0.0003996937218307625,-0.07802821,0.013003366,-0.00028777958,-0.01806141,-0.04340324,0.99889445,-0.40330327,-0.9138586,-0.04700047,-0.9148881,0.40370637,0.0009990584,0.13407529296874998,0.040701428222656245,11.250353601074218,0.91328156,0.05223115,45.620903,0.015380859
-0.08260336917835759,0.0057289433462409285,0.002797856052815337,-0.07802821,0.013003366,-0.00028777958,-0.01806141,-0.04340324,0.99889445,-0.40330327,-0.9138586,-0.04700047,-0.9148881,0.40370637,0.0009990584,0.14125789794921875,0.11013327636718749,11.21683477783203,0.91328156,0.05223115,45.793427,0.015380859
-0.08353598786262936,0.007860643196004996,0.002398162330984575,-0.07802821,0.013003366,-0.00028777958,-0.01806141,-0.04340324,0.99889445,-0.40330327,-0.9138586,-0.04700047,-0.9148881,0.40370637,0.0009990584,0.1149216796875,0.11731588134765625,11.262324609375,0.91328156,0.05223115,45.966652,0.015380859
-0.08833231252459851,0.006528330789902454,0.0009326186842717792,-0.07802821,0.013003366,-0.00028777958,-0.01806141,-0.04340324,0.99889445,-0.40330327,-0.9138586,-0.04700047,-0.9148881,0.40370637,0.0009990584,0.10295067138671875,0.11731588134765625,11.17852755126953,0.91328156,0.05223115,46.137222,0.015258789
-0.08233690669713707,0.0073277182335639785,-0.002398162330984575,-0.07802821,0.013003366,-0.00028777958,-0.01806141,-0.04356155,0.99888754,-0.40330327,-0.91385114,-0.047145303,-0.9148881,0.40370622,0.0010630401,0.11731588134765625,0.0526724365234375,11.314997045898437,0.91328156,0.05223115,46.311256,0.015380859
-0.08273660041896783,0.006128637068071691,0.0003996937218307625,-0.07802821,0.013003366,-0.00028777958,-0.01806141,-0.04356155,0.99888754,-0.40330327,-0.91385114,-0.047145303,-0.9148881,0.40370622,0.0010630401,0.143652099609375,0.10295067138671875,11.209652172851563,0.91328156,0.05223115,46.48367,0.015380859
-0.07953905064432175,0.006794793271122962,0.00159877488732305,-0.07802821,0.013003366,-0.00028777958,-0.01806141,-0.04356155,0.99888754,-0.40330327,-0.91385114,-0.047145303,-0.9148881,0.40370622,0.0010630401,0.0718260498046875,0.10295067138671875,11.274295617675781,0.91328156,0.05223115,46.6557,0.015258789
-0.08326952538140886,0.011591117933092112,0.0021316998497640663,-0.07802821,0.013003366,-0.00028777958,-0.01806141,-0.04356155,0.99888754,-0.40330327,-0.91385114,-0.047145303,-0.9148881,0.40370622,0.0010630401,0.1197100830078125,0.06943184814453125,11.231199987792968,0.91328156,0.05223115,46.8353,0.015991211
-0.08260336917835759,0.010658499248820334,-0.00013323124061025415,-0.07802821,0.013003366,-0.00028777958,-0.01806141,-0.04356155,0.99888754,-0.40330327,-0.91385114,-0.047145303,-0.9148881,0.40370622,0.0010630401,0.1149216796875,0.076614453125,11.25514200439453,0.91328156,0.05223115,47.008415,0.015380859
-0.08300306290018834,0.014655436467127957,0.006128637068071691,-0.07802821,0.013003366,-0.00028777958,-0.01806141,-0.04356155,0.99888754,-0.40330327,-0.91385114,-0.047145303,-0.9148881,0.40370622,0.0010630401,0.10773907470703124,0.24181436767578124,11.3006318359375,0.91328156,0.055950463,47.182228,0.015380859
-0.08366921910323963,0.005196018383799912,0.0019984686091538122,-0.07802821,0.013003366,-0.00028777958,-0.01806141,-0.04356155,0.99888754,-0.40330327,-0.91385114,-0.047145303,-0.9148881,0.40370622,0.0010630401,0.11013327636718749,0.1197100830078125,11.235988391113281,0.91328156,0.055950463,47.35505,0.015380859
-0.08353598786262936,0.007993874436615249,0.0030643185340358454,-0.07802821,0.013003366,-0.00028777958,-0.01806141,-0.04356155,0.99888754,-0.40330327,-0.91385114,-0.047145303,-0.9148881,0.40370622,0.0010630401,0.1388636962890625,0.11731588134765625,11.226411584472656,0.91328156,0.055950463,47.52772,0.015380859
-0.08207044421591657,0.011457886692481857,0.0006661562030512709,-0.07802821,0.013003366,-0.00028777958,-0.01806141,-0.04356155,0.99888754,-0.40330327,-0.91385114,-0.047145303,-0.9148881,0.40370622,0.0010630401,0.11252747802734374,0.076614453125,11.25514200439453,0.91328156,0.055950463,47.699463,0.015258789
-0.08819908128398825,0.009992343045769061,0.0003996937218307625,-0.07802821,0.013003366,-0.00028777958,-0.01806141,-0.04356155,0.99888754,-0.40330327,-0.91385114,-0.047145303,-0.9148881,0.40370622,0.0010630401,0.11252747802734374,0.14604630126953125,11.267113012695312,0.91328156,0.055950463,47.871384,0.015258789
-0.08300306290018834,0.010924961730040842,0.0013323124061025418,-0.07802821,0.013003366,-0.00028777958,-0.01806141,-0.04356155,0.99888754,-0.40330327,-0.91385114,-0.047145303,-0.9148881,0.40370622,0.0010630401,0.047884033203124995,0.05746083984375,11.305420239257812,0.91328156,0.055950463,48.04527,0.015380859
-0.08233690669713707,0.008926493120887028,-0.0019984686091538122,-0.07802821,0.013003366,-0.00028777958,-0.01806141,-0.04356155,0.99888754,-0.40330327,-0.91385114,-0.047145303,-0.9148881,0.40370622,0.0010630401,0.13646949462890623,0.062249243164062495,11.295843432617186,0.91328156,0.055950463,48.21763,0.015258789
-0.08766615632154724,0.005595712105630674,0.002531393571594829,-0.07802821,0.013003366,-0.00028777958,-0.01806141,-0.04373419,0.99887997,-0.40330327,-0.913843,-0.047303244,-0.9148881,0.40370604,0.0011328128,0.15562310791015624,0.055066638183593745,11.204863769531249,0.91328156,0.055950463,48.38997,0.015380859
-0.08580091895300368,0.0037304747370871167,0.0005329249624410166,-0.07802821,0.013003366,-0.00028777958,-0.01806141,-0.04373419,0.99887997,-0.40330327,-0.913843,-0.047303244,-0.9148881,0.40370604,0.0011328128,0.14604630126953125,0.055066638183593745,11.367669482421874,0.91328156,0.055950463,48.56481,0.015380859
-0.08926493120887029,0.007993874436615249,0.0033307810152563544,-0.07802821,0.013003366,-0.00028777958,-0.017888242,-0.043900684,0.9988758,-0.40331146,-0.9138351,-0.047385648,-0.91488785,0.40370584,0.0013587115,0.13168109130859373,0.11252747802734374,11.262324609375,0.91328156,0.055950463,48.738037,0.015380859
-0.0848683002687319,0.0073277182335639785,0.0057289433462409285,-0.07802821,0.013003366,-0.00028777958,-0.017888242,-0.043900684,0.9988758,-0.40331146,-0.9138351,-0.047385648,-0.91488785,0.40370584,0.0013587115,0.16759411621093748,0.19153613281249998,11.221623181152344,0.91328156,0.055950463,48.910637,0.015380859
-0.07887289444127048,0.011324655451871604,0.08833231252459851,-0.07802821,0.013003366,-0.00028777958,-0.01796245,-0.043870375,0.9988758,-0.40485606,-0.91315174,-0.04738564,-0.9142039,0.40525228,0.0013587115,0.17238251953125,0.5985504150390625,11.264718811035156,0.91328156,0.06515668,49.083897,0.015380859
-0.07740735079455767,0.008526799399056265,0.24927565118178552,-0.07802821,0.013003366,-0.00028777958,-0.018140139,-0.0437972,0.9988758,-0.40855438,-0.91150314,-0.047385644,-0.91255367,0.40895486,0.0013587116,0.19632453613281248,0.3758896606445312,11.314997045898437,0.91328156,0.07093819,49.25793,0.015380859
-0.08073813180981403,0.008260336917835759,0.31402603411836905,-0.07802821,0.013003366,-0.00028777958,-0.018354079,-0.043707974,0.9988758,-0.4130065,-0.9094945,-0.047385644,-0.9105431,0.41341212,0.0013587116,0.19632453613281248,0.1388636962890625,11.145008728027342,0.91328156,0.07093819,49.42935,0.015380859
-0.09339509966778817,0.00985911180515881,0.3141592653589793,-0.07802821,0.013003366,-0.00028777958,-0.018570201,-0.04361659,0.9988758,-0.4175033,-0.90743905,-0.047385644,-0.9084856,0.4179141,0.0013587116,0.15083470458984374,0.076614453125,11.212046374511718,0.91328156,0.07093819,49.607277,0.01586914
-0.08766615632154724,0.008793261880276773,0.29404134802683096,-0.07802821,0.013003366,-0.00028777958,-0.018767456,-0.04372537,0.99886733,-0.42159772,-0.90553486,-0.04756089,-0.9065887,0.42201298,0.0014399005,0.16759411621093748,0.4644751220703125,11.303026037597656,0.91328156,0.07808222,49.781128,0.015380859
-0.08247013793774732,0.011457886692481857,0.3630551306629426,-0.07802821,0.013003366,-0.00028777958,-0.019016707,-0.043617547,0.99886733,-0.4267591,-0.9031139,-0.04756089,-0.9041653,0.42718035,0.0014399005,0.23223756103515625,0.40462008056640625,11.226411584472656,0.91685355,0.08430562,49.9538,0.015380859
-0.08300306290018834,0.01532159267017923,0.44312710626970536,-0.07802821,0.013003366,-0.00028777958,-0.01932087,-0.04348367,0.99886733,-0.43305606,-0.9001114,-0.04756089,-0.9011598,0.43348464,0.0014399005,0.201112939453125,0.3495534423828125,11.274295617675781,0.91994685,0.08968206,50.12721,0.015380859
-0.0816707504940858,0.017719755001163805,0.5101424202966632,-0.07802821,0.013003366,-0.00028777958,-0.019666059,-0.043328647,0.99886733,-0.44020042,-0.89663905,-0.04756089,-0.8976841,0.44063732,0.0014399005,0.1005564697265625,0.031124621582031248,11.401188305664062,0.91994685,0.08968206,50.30396,0.01550293
-0.09486064331450096,0.017186830038722786,0.5106753452591042,-0.07802821,0.013003366,-0.00028777958,-0.02000649,-0.043372117,0.9988587,-0.447228,-0.893145,-0.047739398,-0.89419615,0.44767287,0.0015284976,0.011971008300781249,-0.181959326171875,11.298237634277344,0.91994685,0.08968206,50.477734,0.015380859
-0.08220367545652682,0.016120980113840753,0.5162710573647349,-0.07802821,0.013003366,-0.00028777958,-0.020354707,-0.04320979,0.9988587,-0.45439756,-0.8895189,-0.0477394,-0.89056635,0.45485085,0.0015284976,0.28969840087890625,0.4285620971679687,11.221623181152344,0.92440265,0.09627371,50.650333,0.015380859
-0.08326952538140886,0.004263399699528133,0.6399096486510508,-0.07802821,0.013003366,-0.00028777958,-0.020797528,-0.042998407,0.9988587,-0.46351162,-0.88480395,-0.0477394,-0.8858467,0.46397567,0.0015284976,0.16280571289062498,0.8499415893554687,10.963049401855468,0.92440265,0.109346546,50.818954,0.015380859
-0.09379479338961894,0.013323124061025418,0.8807917316743903,-0.07802821,0.013003366,-0.00028777958,-0.02139784,-0.042702843,0.9988587,-0.47586113,-0.8782239,-0.0477394,-0.87926006,0.47633973,0.0015284976,0.17238251953125,0.7302315063476562,11.25514200439453,0.92440265,0.12057813,50.99207,0.015380859
-0.08713323135910622,0.01692036755750228,1.0638514562728796,-0.07802821,0.013003366,-0.00028777958,-0.02210276,-0.042342275,0.9988587,-0.49035355,-0.8702152,-0.0477394,-0.87124324,0.49084926,0.0015284976,-0.08140285644531249,0.19393033447265623,11.513715783691406,0.92440265,0.12057813,51.16916,0.015380859
-0.08366921910323963,0.013323124061025418,1.1054196033432788,-0.07802821,0.013003366,-0.00028777958,-0.022820441,-0.041959837,0.9988587,-0.50509804,-0.8617407,-0.0477394,-0.8627602,0.5056112,0.0015284976,0.11731588134765625,0.031124621582031248,11.039663854980468,0.92440265,0.12057813,51.33896,0.015380859
-0.08753292508093698,0.006661562030512709,1.054125575708331,-0.07802821,0.013003366,-0.00028777958,-0.023491774,-0.041744668,0.99885213,-0.51885486,-0.85352075,-0.047873568,-0.85453945,0.51938415,0.001608676,-0.011971008300781249,-0.19153613281249998,11.235988391113281,0.92440265,0.12057813,51.51178,0.015380859
-0.08846554376520875,0.010924961730040842,0.9593981636344403,-0.07802821,0.013003366,-0.00028777958,-0.024103882,-0.041552417,0.9988456,-0.5313423,-0.8457959,-0.048007555,-0.8468141,0.5318862,0.0016915614,0.17477672119140625,-0.040701428222656245,11.082759484863281,0.92440265,0.12057813,51.683594,0.01550293
-0.08646707515605495,0.011591117933092112,0.8901179185171081,-0.07802821,0.013003366,-0.00028777958,-0.024670934,-0.041471694,0.9988351,-0.54284567,-0.8384471,-0.048220363,-0.83947,0.5434031,0.0018274254,-0.0047884033203125,-0.1580173095703125,11.310208642578125,0.92440265,0.12057813,51.858936,0.01550293
-0.0927289434647369,0.006528330789902454,0.8353598786262937,-0.07802821,0.013003366,-0.00028777958,-0.025206214,-0.04114855,0.9988351,-0.55366385,-0.83134294,-0.048220355,-0.83235866,0.5542345,0.0018274254,0.062249243164062495,0.062249243164062495,11.365275280761718,0.92440265,0.12057813,52.03513,0.01550293
-0.09752526812670605,0.012656967857974145,0.8123108740007196,-0.07802821,0.013003366,-0.00028777958,-0.025721155,-0.04082865,0.9988351,-0.56406397,-0.8243219,-0.048220355,-0.8253304,0.5646473,0.0018274254,0.13168109130859373,0.09816226806640624,11.276689819335937,0.92440265,0.12057813,52.20995,0.01550293
-0.08406891282507037,0.01345635530163567,0.7905941817812482,-0.07802821,0.013003366,-0.00028777958,-0.026217949,-0.040713035,0.99882686,-0.57406604,-0.81737816,-0.048385397,-0.818389,0.57466125,0.0019419603,-0.0047884033203125,0.031124621582031248,11.326968054199218,0.92440265,0.12057813,52.38555,0.01550293
-0.08726646259971647,0.006661562030512709,0.7823338448634124,-0.07802821,0.013003366,-0.00028777958,-0.026709063,-0.04056381,0.99881995,-0.5839017,-0.8103729,-0.048524395,-0.81138486,0.58450884,0.0020409464,0.12449848632812499,0.08858546142578125,11.2240173828125,0.92440265,0.12057813,52.558186,0.015380859
-0.09552679951755223,0.011058192970651094,0.7968560500899302,-0.07802821,0.013003366,-0.00028777958,-0.02720998,-0.040439855,0.9988114,-0.5938791,-0.8030794,-0.048693586,-0.804094,0.59449834,0.0021645795,0.14604630126953125,0.3112462158203125,11.188104357910156,0.92440265,0.12536536,52.730267,0.015380859
-0.08500153150934216,0.01185758041431262,0.8548116397553908,-0.07802821,0.013003366,-0.00028777958,-0.0277367,-0.040080424,0.9988114,-0.6043345,-0.7952414,-0.04869359,-0.7962478,0.6049669,0.0021645795,0.10295067138671875,0.3280056274414062,11.247959399414063,0.92440265,0.13037033,52.901897,0.015258789
-0.0848683002687319,0.013323124061025418,0.9224931099853999,-0.07802821,0.013003366,-0.00028777958,-0.028312488,-0.039873984,0.99880356,-0.6157249,-0.78644556,-0.048849728,-0.78745234,0.6163714,0.0022851445,0.143652099609375,0.3950432739257812,11.188104357910156,0.92440265,0.13644645,53.07398,0.015380859
-0.10058958666074189,0.0030643185340358454,1.0252143964959057,-0.07802821,0.013003366,-0.00028777958,-0.02875404,-0.039640103,0.9988003,-0.6281102,-0.77658623,-0.048903193,-0.77759296,0.62876284,0.0025683274,0.12449848632812499,0.4572925170898437,11.154585534667968,0.92440265,0.14342418,53.244183,0.015258789
-0.07900612568188072,0.008526799399056265,1.0906309356355406,-0.07802821,0.013003366,-0.00028777958,-0.029418334,-0.03914964,0.9988003,-0.64111507,-0.7658851,-0.048903193,-0.7668807,0.64178467,0.0025683274,0.15083470458984374,0.26815058593749996,11.219228979492186,0.92440265,0.14754857,53.416744,0.015380859
-0.08739969384032674,0.0074609494741742334,1.1183430336824733,-0.07802821,0.013003366,-0.00028777958,-0.030085193,-0.038639538,0.9988003,-0.6541512,-0.75478125,-0.048903193,-0.7557652,0.6548378,0.0025683274,0.062249243164062495,0.15083470458984374,11.202469567871093,0.92440265,0.14754857,53.589046,0.015380859
-0.08420214406568063,0.010125574286379316,1.1108820842082991,-0.07802821,0.013003366,-0.00028777958,-0.030738624,-0.038310006,0.99879307,-0.6668746,-0.74355435,-0.04904343,-0.7445356,0.6675773,0.0026920973,0.0383072265625,0.05746083984375,11.341333264160156,0.92440265,0.14754857,53.763485,0.015380859
-0.0877993875621575,0.008793261880276773,1.0617197564231153,-0.07802821,0.013003366,-0.00028777958,-0.031356737,-0.037805747,0.99879307,-0.6788622,-0.732626,-0.04904343,-0.7335958,0.6795808,0.0026920973,0.05746083984375,0.11731588134765625,11.200075366210937,0.92440265,0.14754857,53.935753,0.015380859
-0.08193721297530632,0.018652373685435583,1.0185528344653931,-0.07802821,0.013003366,-0.00028777958,-0.031935528,-0.037318114,0.99879307,-0.69007,-0.7220791,-0.04904343,-0.7230377,0.6908034,0.0026920973,0.11013327636718749,0.105344873046875,11.281478222656249,0.92440265,0.14754857,54.107895,0.015258789
-0.09605972447999325,0.015188361429568975,0.978183768560486,-0.07802821,0.013003366,-0.00028777958,-0.032496262,-0.03705378,0.99878484,-0.70087916,-0.71158105,-0.049202364,-0.7125394,0.7016264,0.0028464624,-0.0383072265625,0.11252747802734374,11.353304272460937,0.92440265,0.14754857,54.283905,0.01550293
-0.0816707504940858,0.012523736617363892,0.9562006138597942,-0.07802821,0.013003366,-0.00028777958,-0.03304123,-0.036568657,0.99878484,-0.7113363,-0.7011275,-0.049202364,-0.7020747,0.7120977,0.0028464624,0.05985504150390625,0.076614453125,11.269507214355468,0.92440265,0.14754857,54.458614,0.01550293
-0.08873200624642928,0.011058192970651094,0.9593981636344403,-0.07802821,0.013003366,-0.00028777958,-0.03358425,-0.036070596,0.99878484,-0.7217388,-0.69041455,-0.049202364,-0.6913502,0.72251433,0.0028464624,-0.0526724365234375,0.01915361328125,11.245565197753905,0.92440265,0.14754857,54.632954,0.01550293
-0.09006431865253181,0.009326186842717792,0.9959035235616499,-0.07802821,0.013003366,-0.00028777958,-0.03413915,-0.03554586,0.99878484,-0.7323505,-0.67914796,-0.049202364,-0.6800715,0.7331404,0.0028464624,0.055066638183593745,0.15322890625,11.192892761230468,0.92440265,0.14754857,54.806477,0.01550293
-0.08500153150934216,0.012390505376753637,1.0329418084513005,-0.07802821,0.013003366,-0.00028777958,-0.03473298,-0.035310335,0.99877274,-0.7436303,-0.6667612,-0.04943258,-0.6676882,0.7444346,0.0030991966,0.12449848632812499,0.0909796630859375,11.281478222656249,0.92440265,0.14754857,54.98826,0.016113281
-0.08673353763727547,0.012656967857974145,1.0461317012717157,-0.07802821,0.013003366,-0.00028777958,-0.03530527,-0.034984116,0.99876416,-0.75438756,-0.65455323,-0.04959397,-0.65547913,0.75520617,0.0032823682,0.1197100830078125,0.1005564697265625,11.195286962890624,0.92440265,0.14754857,55.163185,0.015625
-0.09579326199877274,0.013989280264076687,1.0164211346156289,-0.07802821,0.013003366,-0.00028777958,-0.035842735,-0.03443325,0.99876416,-0.7644323,-0.6427937,-0.04959397,-0.6437068,0.76526517,0.0032823682,0.09337386474609374,0.09576806640624999,11.243170996093749,0.92440265,0.14754857,55.336113,0.015380859
-0.08819908128398825,0.017719755001163805,0.9649938757400709,-0.07802821,0.013003366,-0.00028777958,-0.03634598,-0.033901624,0.99876416,-0.77381647,-0.63146544,-0.04959397,-0.6323662,0.7746627,0.0032823682,0.023942016601562498,-0.06464344482421874,11.269507214355468,0.92440265,0.14754857,55.50945,0.015380859
-0.08300306290018834,0.0075941807147844875,0.9275558971285894,-0.07802821,0.013003366,-0.00028777958,-0.036825884,-0.033379704,0.99876416,-0.78274554,-0.62036276,-0.04959397,-0.62125134,0.7836045,0.0032823682,0.031124621582031248,0.34715924072265625,11.202469567871093,0.92440265,0.15288818,55.68175,0.015380859
-0.0909969373368036,0.012523736617363892,0.970856050326922,-0.07802821,0.013003366,-0.00028777958,-0.03732797,-0.032817267,0.99876416,-0.7920655,-0.6084182,-0.04959397,-0.6092937,0.7929379,0.0032823682,-0.05027823486328125,0.373495458984375,11.231199987792968,0.92440265,0.15863286,55.854496,0.015380859
-0.09939050549524961,0.005462480865020421,1.0610536002200641,-0.07802821,0.013003366,-0.00028777958,-0.037868682,-0.03219182,0.99876416,-0.8020762,-0.595159,-0.04959397,-0.59601986,0.802963,0.0032823682,0.1580173095703125,0.5722141967773438,11.355698474121093,0.92440265,0.167434,56.029156,0.015380859
-0.09339509966778817,0.017986217482384312,1.165240430377283,-0.07802821,0.013003366,-0.00028777958,-0.038446385,-0.031742424,0.99875647,-0.81269985,-0.58055615,-0.049735334,-0.5814128,0.8136014,0.003476739,0.09337386474609374,0.2442085693359375,11.307814440917968,0.92440265,0.17119014,56.20308,0.015380859
-0.09739203688609578,0.018785604926045835,1.2117381333502615,-0.07802821,0.013003366,-0.00028777958,-0.03920026,-0.03139293,0.9987382,-0.82338685,-0.565266,-0.050085388,-0.5661249,0.82431126,0.003689909,0.11013327636718749,0.1484405029296875,11.298237634277344,0.92440265,0.17119014,56.376854,0.015380859
-0.09672588068304452,0.01851914244482533,1.2315895882011896,-0.07802821,0.013003366,-0.00028777958,-0.039782878,-0.030814296,0.9987332,-0.8338297,-0.54973686,-0.050175317,-0.5505864,0.8347695,0.0038237204,0.11252747802734374,0.201112939453125,11.295843432617186,0.92440265,0.17425889,56.549213,0.015258789
-0.09019754989314206,0.016520673835671518,1.232388975644851,-0.07802821,0.013003366,-0.00028777958,-0.040363766,-0.030238695,0.9987275,-0.84413856,-0.5337624,-0.05027672,-0.53460336,0.8450938,0.0039809486,0.0430956298828125,0.3495534423828125,11.154585534667968,0.92440265,0.17963532,56.72078,0.015380859
-0.09459418083328046,0.009059724361497283,1.246511487149538,-0.07802821,0.013003366,-0.00028777958,-0.04094147,-0.02965991,0.99872136,-0.8542764,-0.5173714,-0.050384793,-0.51820415,0.8552469,0.004155775,0.055066638183593745,0.4261678955078125,11.061211669921875,0.92440265,0.18619014,56.89091,0.015380859
-0.09725880564548554,0.00866003063966652,1.3016692207621832,-0.07802821,0.013003366,-0.00028777958,-0.041535325,-0.029103424,0.9987132,-0.86455774,-0.49998716,-0.050525885,-0.5008141,0.8655438,0.0043944214,0.009576806640625,0.45489831542968745,11.324573852539062,0.92440265,0.19318686,57.065094,0.015380859
-0.08993108741192156,0.01572128639200999,1.3782771841130794,-0.07802821,0.013003366,-0.00028777958,-0.042146575,-0.02845077,0.9987064,-0.8749815,-0.48150066,-0.050641887,-0.48231843,0.87598395,0.004600255,-0.00718260498046875,0.26336218261718747,11.257536206054686,0.92440265,0.1972376,57.238243,0.015380859
-0.09073047485558308,0.02078407353519965,1.4090536006940482,-0.07802821,0.013003366,-0.00028777958,-0.04275315,-0.027832951,0.99869806,-0.88515526,-0.4625165,-0.050782327,-0.4633276,0.88617384,0.004862407,0.105344873046875,0.2059013427734375,11.214440576171874,0.92440265,0.2003794,57.409363,0.015258789
-0.0877993875621575,0.010924961730040842,1.3987947951670585,-0.07802821,0.013003366,-0.00028777958,-0.043340646,-0.026908986,0.99869806,-0.8948777,-0.44341296,-0.05078232,-0.44420207,0.89591354,0.004862407,-0.05746083984375,0.12210428466796874,11.434707128906249,0.92440265,0.2003794,57.58524,0.015380859
-0.09872434929219834,0.017186830038722786,1.3641546726083924,-0.07802821,0.013003366,-0.00028777958,-0.04391955,-0.0262315,0.9986908,-0.90432495,-0.42379892,-0.050900895,-0.42457914,0.90537643,0.005108701,0.028730419921875,0.076614453125,11.341333264160156,0.92440265,0.2003794,57.7666,0.015991211
-0.0932618684271779,0.01212404289553313,1.3349770309147466,-0.07802821,0.013003366,-0.00028777958,-0.044450745,-0.02549248,0.99868643,-0.9128379,-0.40512836,-0.050970837,-0.4058954,0.9139044,0.0052622026,0.105344873046875,0.14125789794921875,11.235988391113281,0.92440265,0.2003794,57.939423,0.015380859
-0.08180398173469605,0.016653905076281773,1.3285819313654545,-0.07802821,0.013003366,-0.00028777958,-0.04496145,-0.024580555,0.99868643,-0.9209111,-0.38642573,-0.050970837,-0.38717088,0.921993,0.0052622026,-0.040701428222656245,0.29448680419921874,11.049240661621093,0.92440265,0.20490886,58.10937,0.015380859
-0.08700000011849597,0.012923430339194655,1.327782543921793,-0.07802821,0.013003366,-0.00028777958,-0.04545703,-0.023651509,0.99868643,-0.9286569,-0.3674215,-0.050970837,-0.36814424,0.9297539,0.0052622026,0.11013327636718749,0.4213794921875,11.202469567871093,0.92440265,0.21139005,58.281673,0.015380859
-0.09579326199877274,0.004929555902579405,1.3665528349393767,-0.07802821,0.013003366,-0.00028777958,-0.045947798,-0.022683378,0.99868643,-0.9362308,-0.3476692,-0.05097083,-0.34836856,0.9373429,0.005262202,0.06943184814453125,0.6272808349609375,11.326968054199218,0.92440265,0.22103816,58.45589,0.015380859
-0.09552679951755223,0.005196018383799912,1.5384211353266048,-0.07802821,0.013003366,-0.00028777958,-0.04648457,-0.021766415,0.998682,-0.9443533,-0.32494935,-0.051037923,-0.32563183,0.945481,0.005450013,-0.0526724365234375,1.2761094848632812,11.240776794433593,0.92440265,0.24066582,58.628784,0.015380859
-0.0868667688778857,0.011990811654922875,1.738267996241986,-0.07802821,0.013003366,-0.00028777958,-0.047072962,-0.020917526,0.9986726,-0.9529511,-0.29877293,-0.05117556,-0.29944664,0.954095,0.005869211,0.028730419921875,0.622492431640625,11.051634863281249,0.92440265,0.2502403,58.798767,0.015380859
-0.09699234316426504,0.003863705977697371,1.864571212340507,-0.07802821,0.013003366,-0.00028777958,-0.047654502,-0.019556474,0.9986726,-0.9611416,-0.27127108,-0.05117556,-0.27191165,0.9623044,0.005869211,-0.055066638183593745,0.40222587890625,11.532869396972655,0.92440265,0.25642687,58.976154,0.015380859
-0.09286217470534716,0.014921898948348467,1.8909509979813375,-0.07802821,0.013003366,-0.00028777958,-0.048202395,-0.018164158,0.9986726,-0.9686148,-0.24324143,-0.051175553,-0.24384797,0.96979576,0.00586921,0.0430956298828125,0.3591302490234375,11.429918725585937,0.92440265,0.2619506,59.151955,0.015380859
-0.0860673814342242,0.020251148572758632,1.8894854543346244,-0.07802821,0.013003366,-0.00028777958,-0.048716296,-0.017079158,0.9986668,-0.9752948,-0.21487977,-0.051250827,-0.21546847,0.9764912,0.006189023,0.105344873046875,0.24660277099609373,11.168950744628905,0.92440265,0.26574358,59.323742,0.015380859
-0.0846018377875114,0.017186830038722786,1.9166646274191164,-0.07802821,0.013003366,-0.00028777958,-0.049204644,-0.015977144,0.9986611,-0.98121655,-0.1859584,-0.05131998,-0.18652922,0.98242784,0.006526975,-0.076614453125,0.36152445068359373,11.073182678222656,0.92440265,0.27130413,59.494057,0.015380859
-0.0941944871114497,0.014655436467127957,1.9815482415963102,-0.07802821,0.013003366,-0.00028777958,-0.049675856,-0.014810389,0.99865574,-0.9864475,-0.15582506,-0.051379286,-0.15637638,0.98767364,0.006868879,-0.0526724365234375,0.5123591552734374,11.209652172851563,0.92440265,0.27918467,59.66647,0.015380859
-0.08766615632154724,0.018652373685435583,2.056957123781714,-0.07802821,0.013003366,-0.00028777958,-0.050125837,-0.013512053,0.9986517,-0.99089956,-0.12439497,-0.051419582,-0.12492188,0.9921409,0.007153634,-0.16759411621093748,0.5458779785156249,11.247959399414063,0.92440265,0.28758073,59.839474,0.015380859
-0.09725880564548554,0.02598009191899956,2.090264933934278,-0.07802821,0.013003366,-0.00028777958,-0.05053868,-0.012363581,0.9986458,-0.9943632,-0.09269708,-0.051469315,-0.09320774,0.9956177,0.0076090493,-0.1197100830078125,0.1771709228515625,11.470620153808593,0.92440265,0.28758073,60.0145,0.015258789
-0.10272128651050597,0.018785604926045835,2.0696140916396883,-0.07802821,0.013003366,-0.00028777958,-0.050908525,-0.011082899,0.998642,-0.99679184,-0.061272804,-0.05149394,-0.061760146,0.9980595,0.007927979,-0.06464344482421874,0.14125789794921875,11.334150659179686,0.92440265,0.28758073,60.187447,0.015258789
-0.1023215927886752,0.010258805526989571,2.0303108756596635,-0.07802821,0.013003366,-0.00028777958,-0.05123236,-0.009689851,0.99863994,-0.99821734,-0.030161887,-0.051503062,-0.030619772,0.99949807,0.0081272535,-0.12689268798828124,0.06703764648437499,11.350910070800781,0.92440265,0.28758073,60.362034,0.015380859
-0.10738437993186485,0.023049004625573973,1.9656937239636898,-0.07802821,0.013003366,-0.00028777958,-0.051514607,-0.00847418,0.9986365,-0.9986721,0.0008863916,-0.051508635,0.00044883037,0.9999637,0.008508529,0.16280571289062498,0.09816226806640624,11.212046374511718,0.92440265,0.28758073,60.53996,0.01586914
-0.09539356827694198,0.016254211354451008,1.8736309367020043,-0.07802821,0.013003366,-0.00028777958,-0.051740613,-0.007420983,0.9986332,-0.998243,0.029300772,-0.051502366,0.028878655,0.9995431,0.008923922,0.09576806640624999,-0.09337386474609374,11.128249316406249,0.92440265,0.28758073,60.709763,0.015258789
-0.08473506902812164,0.008926493120887028,1.7106891294356634,-0.07802821,0.013003366,-0.00028777958,-0.051919326,-0.006357361,0.99863124,-0.99714696,0.055196486,-0.051490474,0.054793727,0.9984553,0.009204926,0.10773907470703124,-0.2154781494140625,11.324573852539062,0.92440265,0.2842928,60.88256,0.015258789
-0.10698468621003408,0.013989280264076687,1.573061257885271,-0.07802821,0.013003366,-0.00028777958,-0.052060727,-0.005463511,0.99862915,-0.99554116,0.079050474,-0.051466953,0.07866105,0.9968557,0.009554513,0.05027823486328125,0.2561795776367187,11.104307299804686,0.92440265,0.28820178,61.052,0.015258789
-0.08926493120887029,0.010125574286379316,1.499650844309021,-0.07802821,0.013003366,-0.00028777958,-0.052171815,-0.0042744726,0.99862915,-0.99347883,0.10174033,-0.051466953,0.101381,0.9948019,0.009554513,0.011971008300781249,-0.047884033203124995,11.281478222656249,0.92440265,0.28820178,61.225517,0.015380859
-0.07967228188493199,0.013323124061025418,1.4343675364099964,-0.07802821,0.013003366,-0.00028777958,-0.052256264,-0.0034764956,0.99862784,-0.99102616,0.12337903,-0.051428657,0.12303105,0.9923535,0.009892561,0.0430956298828125,0.13168109130859373,11.2240173828125,0.92440265,0.28820178,61.396782,0.015258789
-0.0927289434647369,0.015987748873230498,1.442627873327832,-0.07802821,0.013003366,-0.00028777958,-0.052324064,-0.0026459622,0.9986268,-0.9880506,0.14531212,-0.05138458,0.14497674,0.9893823,0.0102176005,0.0383072265625,0.30406361083984373,11.326968054199218,0.92440265,0.29284143,61.56962,0.015258789
-0.08047166932859352,0.01345635530163567,1.4971194507374261,-0.07802821,0.013003366,-0.00028777958,-0.05237112,-0.0014404737,0.9986268,-0.9844428,0.16802394,-0.05138458,0.16771932,0.9857819,0.0102176005,0.2753331909179687,0.6679822631835937,10.824185705566405,0.9286039,0.30303404,61.734783,0.015258789
-0.09139663105863435,0.017719755001163805,1.5958438000296242,-0.07802821,0.013003366,-0.00028777958,-0.05239375,-0.00039607612,0.9986266,-0.98000413,0.19223994,-0.05134014,0.19195567,0.98134786,0.01046026,0.22505495605468748,0.7805097412109374,11.305420239257812,0.93203795,0.31494367,61.90729,0.015258789
-0.09246248098351639,0.022249617181912446,1.736136296392222,-0.07802821,0.013003366,-0.00028777958,-0.052389264,0.0007340949,0.99862665,-0.97455627,0.21819657,-0.051286574,0.21793467,0.9759046,0.010715675,0.062249243164062495,0.36391865234375,11.171344946289063,0.93203795,0.32054105,62.079117,0.015380859
-0.08966462493070106,0.03037672285913795,1.6977656990964687,-0.07802821,0.013003366,-0.00028777958,-0.052356612,0.0018353127,0.99862695,-0.9686965,0.24290392,-0.051233493,0.24266453,0.97004867,0.010939699,0.009576806640625,-0.12449848632812499,11.214440576171874,0.93203795,0.32054105,62.251606,0.015380859
-0.09952373673585986,0.011058192970651094,1.533758041905246,-0.07802821,0.013003366,-0.00028777958,-0.05230261,0.00280663,0.99862754,-0.962783,0.26538756,-0.05117081,0.265167,0.9641377,0.011178217,0.0430956298828125,-0.3399766357421875,11.401188305664062,0.93203795,0.3153119,62.426968,0.015380859
-0.08646707515605495,0.013989280264076687,1.3530964796377414,-0.07802821,0.013003366,-0.00028777958,-0.052237377,0.0035844352,0.9986285,-0.957165,0.2849999,-0.051091097,0.28479218,0.9585208,0.011456681,0.11252747802734374,-0.47644613037109373,11.152191333007812,0.93203795,0.30798376,62.5985,0.015380859
-0.08593415019361393,0.008793261880276773,1.1517840750756472,-0.07802821,0.013003366,-0.00028777958,-0.052169763,0.0042839805,0.9986293,-0.9521259,0.30141664,-0.051033072,0.30122215,0.9534829,0.011645876,0.19153613281249998,-0.18914193115234373,11.161768139648437,0.93203795,0.30798376,62.768814,0.015258789
-0.08793261880276775,0.00479632466196915,1.0477304761590387,-0.07802821,0.013003366,-0.00028777958,-0.05209589,0.0048764315,0.9986304,-0.9471408,0.31674573,-0.050956197,0.31656042,0.94849795,0.011882413,0.35194764404296874,1.1156979736328125,11.231199987792968,0.93740827,0.32500795,62.94019,0.015258789
-0.08580091895300368,0.016653905076281773,1.2939418088067884,-0.07802821,0.013003366,-0.00028777958,-0.051988255,0.005740143,0.9986314,-0.94052404,0.33589357,-0.050893605,0.33572605,0.9418825,0.012063708,0.3854664672851562,1.024718310546875,11.188104357910156,0.94329,0.3406439,63.110905,0.015258789
-0.09219601850229589,0.01958499236970736,1.4726049024651393,-0.07802821,0.013003366,-0.00028777958,-0.05184639,0.006659345,0.9986331,-0.93259245,0.35733828,-0.050800297,0.3571882,0.9339513,0.012316176,0.22744915771484372,0.689530078125,11.405976708984374,0.9467884,0.3512495,63.28634,0.015380859
-0.09792496184853682,0.017453292519943295,1.6002404309697627,-0.07802821,0.013003366,-0.00028777958,-0.05166487,0.007945835,0.9986331,-0.92342347,0.38040578,-0.050800297,0.38028947,0.9247855,0.012316174,0.15562310791015624,0.6153098266601562,11.386823095703125,0.9467884,0.36071348,63.46148,0.015380859
-0.10352067395416749,0.011058192970651094,1.6924364494720587,-0.07802821,0.013003366,-0.00028777958,-0.05144041,0.008997877,0.99863577,-0.913022,0.40475014,-0.050676912,0.404654,0.91438305,0.012605182,0.011971008300781249,0.6177040283203125,11.180921752929686,0.9467884,0.3702143,63.63345,0.015380859
-0.08513476274995241,0.014522205226517705,1.721480859925094,-0.07802821,0.013003366,-0.00028777958,-0.051182814,0.010363277,0.99863577,-0.9019304,0.42889807,-0.050676912,0.4288381,0.90329343,0.01260518,0.00718260498046875,0.011971008300781249,11.281478222656249,0.9467884,0.3702143,63.80697,0.015380859
-0.1008560491419624,0.015987748873230498,1.6537993896950849,-0.07802821,0.013003366,-0.00028777958,-0.050904006,0.011655923,0.99863577,-0.8907813,0.45159775,-0.050676905,0.45157236,0.8921455,0.01260518,-0.00239420166015625,-0.14604630126953125,11.358092675781249,0.9467884,0.3702143,63.981667,0.015380859
-0.09246248098351639,0.021716692219471426,1.5580061276963122,-0.07802821,0.013003366,-0.00028777958,-0.05061383,0.012710679,0.9986377,-0.87977415,0.47269076,-0.050605547,0.47269002,0.8811367,0.012742086,0.0383072265625,-0.14604630126953125,11.250353601074218,0.9467884,0.3702143,64.15471,0.015380859
-0.0929954059459574,0.011457886692481857,1.4618131719757088,-0.07802821,0.013003366,-0.00028777958,-0.05032181,0.013577433,0.998641,-0.8690564,0.4921306,-0.05048261,0.4921472,0.8704155,0.01296527,-0.011971008300781249,-0.04548983154296875,11.262324609375,0.9467884,0.3702143,64.32656,0.015258789
-0.0932618684271779,0.011457886692481857,1.416781012649443,-0.07802821,0.013003366,-0.00028777958,-0.05001676,0.014447864,0.9986441,-0.85813814,0.510942,-0.05037125,0.51097697,0.8594938,0.013157323,0.19871873779296872,0.5985504150390625,11.015721838378905,0.9467884,0.37942052,64.495995,0.015380859
-0.08953139369009079,0.013323124061025418,1.4632787156224214,-0.07802821,0.013003366,-0.00028777958,-0.0496805,0.015331414,0.99864775,-0.84638184,0.5302012,-0.05024499,0.5302545,0.8477332,0.013364352,0.2705447875976562,0.5123591552734374,11.437101330566406,0.9509496,0.38730106,64.671906,0.015380859
-0.08366921910323963,0.012523736617363892,1.4967197570155952,-0.07802821,0.013003366,-0.00028777958,-0.049309608,0.016485363,0.99864775,-0.8337921,0.54978734,-0.050244983,0.54987216,0.83514196,0.013364352,0.16759411621093748,0.5051765502929687,11.207257971191405,0.9509496,0.39513278,64.84565,0.01550293
-0.09685911192365478,0.012257274136143382,1.5145727432573695,-0.07802821,0.013003366,-0.00028777958,-0.048909876,0.017636012,0.99864775,-0.8206835,0.5691697,-0.050244983,0.5692861,0.82203096,0.013364352,0.076614453125,0.12449848632812499,11.245565197753905,0.9509496,0.39513278,65.01999,0.01550293
-0.0912633998180241,0.020251148572758632,1.4972526819780363,-0.07802821,0.013003366,-0.00028777958,-0.04849126,0.018479608,0.99865294,-0.80727,0.5880538,-0.05007963,0.588187,0.8086106,0.01359735,0.20350714111328125,0.2657563842773437,11.17852755126953,0.95410454,0.39925277,65.19329,0.01550293
-0.08566768771239343,0.01438897398590745,1.4847289453606722,-0.07802821,0.013003366,-0.00028777958,-0.04805166,0.019594291,0.99865294,-0.7934773,0.60653603,-0.05007963,0.6067001,0.7948145,0.01359735,0.16280571289062498,0.06464344482421874,11.204863769531249,0.95410454,0.39925277,65.36837,0.015625
-0.09432771835205994,0.009992343045769061,1.4275727431388734,-0.07802821,0.013003366,-0.00028777958,-0.047607042,0.020651098,0.99865294,-0.7798837,0.623918,-0.05007963,0.6241116,0.7812169,0.01359735,0.16998831787109375,0.047884033203124995,11.307814440917968,0.95410454,0.39925277,65.54367,0.01550293
-0.10711791745064435,0.013189892820415163,1.371215928360736,-0.07802821,0.013003366,-0.00028777958,-0.047166847,0.021295005,0.9986603,-0.7666179,0.640165,-0.04985768,0.64036894,0.76794225,0.013869344,0.16759411621093748,0.12210428466796874,11.358092675781249,0.95410454,0.39925277,65.71837,0.015380859
-0.0929954059459574,0.006261868308681946,1.3532297108783515,-0.07802821,0.013003366,-0.00028777958,-0.046697926,0.022097958,0.9986649,-0.75260466,0.6565929,-0.04972044,0.6568148,0.7539214,0.014030412,0.2705447875976562,0.3711012573242187,11.154585534667968,0.9584309,0.40518713,65.89674,0.015991211
-0.08753292508093698,0.016787136316892024,1.4055895884381815,-0.07802821,0.013003366,-0.00028777958,-0.046205997,0.023108914,0.9986649,-0.7381384,0.6728147,-0.049720433,0.6730653,0.73945,0.014030412,0.21787235107421873,0.6272808349609375,11.259930407714844,0.961782,0.41483524,66.06993,0.015380859
-0.08753292508093698,0.019318529888486854,1.4936554384815595,-0.07802821,0.013003366,-0.00028777958,-0.045659766,0.023991443,0.9986692,-0.72233635,0.6897612,-0.049595688,0.690033,0.7236393,0.014164358,0.2753331909179687,0.36391865234375,11.145008728027342,0.9660168,0.42043263,66.24135,0.015380859
-0.08113782553164478,0.02105053601642016,1.5592052088618045,-0.07802821,0.013003366,-0.00028777958,-0.0450741,0.025074469,0.9986692,-0.70566654,0.7068063,-0.049595688,0.7071091,0.70696265,0.014164358,0.23223756103515625,0.411802685546875,10.97502041015625,0.9695605,0.42671624,66.40881,0.015258789
-0.07607503838845513,0.012257274136143382,1.60397090570685,-0.07802821,0.013003366,-0.00028777958,-0.04442201,0.026418753,0.9986638,-0.6875417,0.72443885,-0.049746834,0.724785,0.68883264,0.014016949,0.04548983154296875,0.3136404174804687,11.231199987792968,0.9695605,0.43165517,66.58567,0.01574707
-0.07594180714784488,0.015987748873230498,1.6484701400706747,-0.07802821,0.013003366,-0.00028777958,-0.043727078,0.02755374,0.9986638,-0.66866153,0.74190104,-0.049746834,0.74228024,0.66994303,0.014016947,0.22505495605468748,0.34237083740234375,11.092336291503905,0.973077,0.43700472,66.75899,0.015625
